rt,responses,trial_type,trial_index,time_elapsed,internal_node_id,key_press,success_time,board_size,board_set,board_no,success
10985,"{"Q0":"buia90"}",survey-text,0,10990,0.0-0.0,NULL,NULL,NULL,NULL,NULL,NULL
10545,NULL,instructions,1,21536,0.0-1.0,NULL,NULL,NULL,NULL,NULL,NULL
59138,NULL,instructions,2,80674,0.0-2.0-0.0,NULL,NULL,NULL,NULL,NULL,NULL
4146,NULL,html-keyboard-response,3,84821,0.0-2.0-1.0,67,NULL,NULL,NULL,NULL,NULL
12219,NULL,instructions,4,97040,0.0-3.0,NULL,NULL,NULL,NULL,NULL,NULL
NULL,NULL,sudoku_trial,5,150990,0.0-4.0,NULL,53948,boards2x3,d,0,1
21613,NULL,instructions,6,172603,0.0-5.0,NULL,NULL,NULL,NULL,NULL,NULL
NULL,NULL,sudoku_trial,7,194792,0.0-6.0,NULL,22187,boards2x2,c,3,1
NULL,NULL,sudoku_trial,8,285937,0.0-7.0,NULL,91141,boards2x3,a,4,1
NULL,NULL,sudoku_trial,9,313064,0.0-8.0,NULL,27127,boards2x2,b,1,1
NULL,NULL,sudoku_trial,10,400555,0.0-9.0,NULL,87488,boards2x3,b,1,1
NULL,NULL,sudoku_trial,11,521762,0.0-10.0,NULL,NULL,boards2x4,c,2,
NULL,NULL,sudoku_trial,12,643226,0.0-11.0,NULL,NULL,boards2x4,b,1,
NULL,NULL,sudoku_trial,13,730942,0.0-12.0,NULL,87713,boards2x3,c,3,1
NULL,NULL,sudoku_trial,14,852297,0.0-13.0,NULL,NULL,boards2x4,a,3,
NULL,NULL,sudoku_trial,15,873589,0.0-14.0,NULL,21290,boards2x2,a,0,1
1419,NULL,instructions,16,875008,0.0-15.0,NULL,NULL,NULL,NULL,NULL,NULL
77603,"{"Q0":"BOIA76"}",survey-text,0,77608,0.0-0.0,NULL,NULL,NULL,NULL,NULL,NULL
8473,NULL,instructions,1,86082,0.0-1.0,NULL,NULL,NULL,NULL,NULL,NULL
8498,NULL,instructions,2,94580,0.0-2.0-0.0,NULL,NULL,NULL,NULL,NULL,NULL
4199,NULL,html-keyboard-response,3,98782,0.0-2.0-1.0,67,NULL,NULL,NULL,NULL,NULL
11134,NULL,instructions,4,109917,0.0-3.0,NULL,NULL,NULL,NULL,NULL,NULL
NULL,NULL,sudoku_trial,5,147300,0.0-4.0,NULL,37374,boards2x3,d,0,1
10413,NULL,instructions,6,157714,0.0-5.0,NULL,NULL,NULL,NULL,NULL,NULL
NULL,NULL,sudoku_trial,7,215975,0.0-6.0,NULL,58254,boards2x3,c,0,1
NULL,NULL,sudoku_trial,8,234371,0.0-7.0,NULL,18393,boards2x2,c,4,1
NULL,NULL,sudoku_trial,9,289525,0.0-8.0,NULL,55148,boards2x3,b,1,1
NULL,NULL,sudoku_trial,10,415116,0.0-9.0,NULL,NULL,boards2x4,c,1,
NULL,NULL,sudoku_trial,11,482434,0.0-10.0,NULL,67312,boards2x3,a,4,1
NULL,NULL,sudoku_trial,12,626782,0.0-11.0,NULL,NULL,boards2x4,a,1,
NULL,NULL,sudoku_trial,13,655698,0.0-12.0,NULL,28913,boards2x2,b,3,1
NULL,NULL,sudoku_trial,14,671827,0.0-13.0,NULL,16128,boards2x2,a,0,1
NULL,NULL,sudoku_trial,15,794214,0.0-14.0,NULL,122384,boards2x4,b,3,1
4633,NULL,instructions,16,798847,0.0-15.0,NULL,NULL,NULL,NULL,NULL,NULL
9883,"{"Q0":"gala86"}",survey-text,0,9895,0.0-0.0,NULL,NULL,NULL,NULL,NULL,NULL
12237,NULL,instructions,1,22133,0.0-1.0,NULL,NULL,NULL,NULL,NULL,NULL
125177,NULL,instructions,2,147310,0.0-2.0-0.0,NULL,NULL,NULL,NULL,NULL,NULL
2867,NULL,html-keyboard-response,3,150179,0.0-2.0-1.0,67,NULL,NULL,NULL,NULL,NULL
23952,NULL,instructions,4,174131,0.0-3.0,NULL,NULL,NULL,NULL,NULL,NULL
NULL,NULL,sudoku_trial,5,253690,0.0-4.0,NULL,79556,boards2x3,d,0,1
15150,NULL,instructions,6,268840,0.0-5.0,NULL,NULL,NULL,NULL,NULL,NULL
NULL,NULL,sudoku_trial,7,406396,0.0-6.0,NULL,NULL,boards2x3,a,2,
NULL,NULL,sudoku_trial,8,528381,0.0-7.0,NULL,NULL,boards2x4,c,3,
NULL,NULL,sudoku_trial,9,626160,0.0-8.0,NULL,97778,boards2x3,c,4,1
NULL,NULL,sudoku_trial,10,748394,0.0-9.0,NULL,NULL,boards2x4,b,0,
NULL,NULL,sudoku_trial,11,847539,0.0-10.0,NULL,99143,boards2x3,b,3,1
NULL,NULL,sudoku_trial,12,973618,0.0-11.0,NULL,NULL,boards2x4,a,3,
NULL,NULL,sudoku_trial,13,1000494,0.0-12.0,NULL,26873,boards2x2,b,1,1
NULL,NULL,sudoku_trial,14,1036046,0.0-13.0,NULL,35551,boards2x2,a,3,1
NULL,NULL,sudoku_trial,15,1061729,0.0-14.0,NULL,25682,boards2x2,c,0,1
2253,NULL,instructions,16,1063982,0.0-15.0,NULL,NULL,NULL,NULL,NULL,NULL
11847,"{"Q0":"ryna69"}",survey-text,0,11851,0.0-0.0,NULL,NULL,NULL,NULL,NULL,NULL
14756,NULL,instructions,1,26608,0.0-1.0,NULL,NULL,NULL,NULL,NULL,NULL
185288,NULL,instructions,2,211897,0.0-2.0-0.0,NULL,NULL,NULL,NULL,NULL,NULL
11646,NULL,html-keyboard-response,3,223544,0.0-2.0-1.0,67,NULL,NULL,NULL,NULL,NULL
20483,NULL,instructions,4,244028,0.0-3.0,NULL,NULL,NULL,NULL,NULL,NULL
NULL,NULL,sudoku_trial,5,318507,0.0-4.0,NULL,74476,boards2x3,d,0,1
27918,NULL,instructions,6,346425,0.0-5.0,NULL,NULL,NULL,NULL,NULL,NULL
NULL,NULL,sudoku_trial,7,434372,0.0-6.0,NULL,87945,boards2x3,c,4,1
NULL,NULL,sudoku_trial,8,557240,0.0-7.0,NULL,NULL,boards2x4,c,4,
NULL,NULL,sudoku_trial,9,680251,0.0-8.0,NULL,NULL,boards2x3,b,3,
NULL,NULL,sudoku_trial,10,804110,0.0-9.0,NULL,NULL,boards2x3,a,4,
NULL,NULL,sudoku_trial,11,840085,0.0-10.0,NULL,35973,boards2x2,b,3,1
NULL,NULL,sudoku_trial,12,964193,0.0-11.0,NULL,NULL,boards2x4,a,3,
NULL,NULL,sudoku_trial,13,992101,0.0-12.0,NULL,27907,boards2x2,a,1,1
NULL,NULL,sudoku_trial,14,1032631,0.0-13.0,NULL,40529,boards2x2,c,1,1
NULL,NULL,sudoku_trial,15,1154900,0.0-14.0,NULL,NULL,boards2x4,b,4,
2284,NULL,instructions,16,1157184,0.0-15.0,NULL,NULL,NULL,NULL,NULL,NULL
14287,"{"Q0":"oman81"}",survey-text,0,14292,0.0-0.0,NULL,NULL,NULL,NULL,NULL,NULL
1780,NULL,instructions,1,16073,0.0-1.0,NULL,NULL,NULL,NULL,NULL,NULL
27537,NULL,instructions,2,43610,0.0-2.0-0.0,NULL,NULL,NULL,NULL,NULL,NULL
1784,NULL,html-keyboard-response,3,45396,0.0-2.0-1.0,67,NULL,NULL,NULL,NULL,NULL
3183,NULL,instructions,4,48580,0.0-3.0,NULL,NULL,NULL,NULL,NULL,NULL
NULL,NULL,sudoku_trial,5,74828,0.0-4.0,NULL,26240,boards2x3,d,0,1
3653,NULL,instructions,6,78482,0.0-5.0,NULL,NULL,NULL,NULL,NULL,NULL
NULL,NULL,sudoku_trial,7,131159,0.0-6.0,NULL,52674,boards2x3,c,2,1
NULL,NULL,sudoku_trial,8,253450,0.0-7.0,NULL,NULL,boards2x4,b,0,
NULL,NULL,sudoku_trial,9,273973,0.0-8.0,NULL,20521,boards2x2,a,3,1
NULL,NULL,sudoku_trial,10,290708,0.0-9.0,NULL,16733,boards2x2,c,3,1
NULL,NULL,sudoku_trial,11,390640,0.0-10.0,NULL,99931,boards2x3,b,0,1
NULL,NULL,sudoku_trial,12,423491,0.0-11.0,NULL,32848,boards2x2,b,1,1
NULL,NULL,sudoku_trial,13,546349,0.0-12.0,NULL,NULL,boards2x4,a,1,
NULL,NULL,sudoku_trial,14,587803,0.0-13.0,NULL,41452,boards2x3,a,3,1
NULL,NULL,sudoku_trial,15,727577,0.0-14.0,NULL,NULL,boards2x4,c,0,
81852,NULL,instructions,16,809431,0.0-15.0,NULL,NULL,NULL,NULL,NULL,NULL
11066,"{"Q0":"neka95"}",survey-text,0,11070,0.0-0.0,NULL,NULL,NULL,NULL,NULL,NULL
1247,NULL,instructions,1,12317,0.0-1.0,NULL,NULL,NULL,NULL,NULL,NULL
5041,NULL,instructions,2,17358,0.0-2.0-0.0,NULL,NULL,NULL,NULL,NULL,NULL
1466,NULL,html-keyboard-response,3,18825,0.0-2.0-1.0,67,NULL,NULL,NULL,NULL,NULL
6884,NULL,instructions,4,25710,0.0-3.0,NULL,NULL,NULL,NULL,NULL,NULL
NULL,NULL,sudoku_trial,5,50174,0.0-4.0,NULL,24463,boards2x3,d,0,1
2823,NULL,instructions,6,52997,0.0-5.0,NULL,NULL,NULL,NULL,NULL,NULL
NULL,NULL,sudoku_trial,7,70470,0.0-6.0,NULL,17473,boards2x2,c,3,1
NULL,NULL,sudoku_trial,8,192639,0.0-7.0,NULL,NULL,boards2x4,a,4,
NULL,NULL,sudoku_trial,9,252997,0.0-8.0,NULL,60357,boards2x3,a,4,1
NULL,NULL,sudoku_trial,10,274069,0.0-9.0,NULL,21072,boards2x2,a,3,1
NULL,NULL,sudoku_trial,11,386622,0.0-10.0,NULL,112552,boards2x4,c,4,1
NULL,NULL,sudoku_trial,12,439405,0.0-11.0,NULL,52783,boards2x3,c,0,1
NULL,NULL,sudoku_trial,13,560775,0.0-12.0,NULL,NULL,boards2x4,b,2,
NULL,NULL,sudoku_trial,14,611622,0.0-13.0,NULL,50846,boards2x3,b,4,1
NULL,NULL,sudoku_trial,15,629061,0.0-14.0,NULL,17439,boards2x2,b,0,1
4520,NULL,instructions,16,633581,0.0-15.0,NULL,NULL,NULL,NULL,NULL,NULL
8800,"{"Q0":"srta88"}",survey-text,0,8803,0.0-0.0,NULL,NULL,NULL,NULL,NULL,NULL
8967,NULL,instructions,1,17770,0.0-1.0,NULL,NULL,NULL,NULL,NULL,NULL
242881,NULL,instructions,2,260651,0.0-2.0-0.0,NULL,NULL,NULL,NULL,NULL,NULL
7079,NULL,html-keyboard-response,3,267730,0.0-2.0-1.0,67,NULL,NULL,NULL,NULL,NULL
8152,NULL,instructions,4,275883,0.0-3.0,NULL,NULL,NULL,NULL,NULL,NULL
NULL,NULL,sudoku_trial,5,438980,0.0-4.0,NULL,163094,boards2x3,d,0,1
13887,NULL,instructions,6,452867,0.0-5.0,NULL,NULL,NULL,NULL,NULL,NULL
NULL,NULL,sudoku_trial,7,503699,0.0-6.0,NULL,50831,boards2x2,c,0,1
NULL,NULL,sudoku_trial,8,535868,0.0-7.0,NULL,32167,boards2x2,a,1,1
NULL,NULL,sudoku_trial,9,662468,0.0-8.0,NULL,NULL,boards2x4,b,1,
NULL,NULL,sudoku_trial,10,697314,0.0-9.0,NULL,34846,boards2x2,b,1,1
NULL,NULL,sudoku_trial,11,821372,0.0-10.0,NULL,NULL,boards2x4,c,1,
NULL,NULL,sudoku_trial,12,915459,0.0-11.0,NULL,94085,boards2x3,a,3,1
NULL,NULL,sudoku_trial,13,1038181,0.0-12.0,NULL,NULL,boards2x4,a,4,
NULL,NULL,sudoku_trial,14,1124933,0.0-13.0,NULL,86750,boards2x3,b,0,1
NULL,NULL,sudoku_trial,15,1200980,0.0-14.0,NULL,76046,boards2x3,c,2,1
3839,NULL,instructions,16,1204819,0.0-15.0,NULL,NULL,NULL,NULL,NULL,NULL
11989,"{"Q0":"mahi91"}",survey-text,0,11994,0.0-0.0,NULL,NULL,NULL,NULL,NULL,NULL
25386,NULL,instructions,1,37381,0.0-1.0,NULL,NULL,NULL,NULL,NULL,NULL
34317,NULL,instructions,2,71698,0.0-2.0-0.0,NULL,NULL,NULL,NULL,NULL,NULL
7871,NULL,html-keyboard-response,3,79571,0.0-2.0-1.0,67,NULL,NULL,NULL,NULL,NULL
27503,NULL,instructions,4,107074,0.0-3.0,NULL,NULL,NULL,NULL,NULL,NULL
NULL,NULL,sudoku_trial,5,163955,0.0-4.0,NULL,56878,boards2x3,d,0,1
33676,NULL,instructions,6,197631,0.0-5.0,NULL,NULL,NULL,NULL,NULL,NULL
NULL,NULL,sudoku_trial,7,230399,0.0-6.0,NULL,32767,boards2x2,b,4,1
NULL,NULL,sudoku_trial,8,303134,0.0-7.0,NULL,72734,boards2x3,b,2,1
NULL,NULL,sudoku_trial,9,409250,0.0-8.0,NULL,106115,boards2x3,a,1,1
NULL,NULL,sudoku_trial,10,435022,0.0-9.0,NULL,25769,boards2x2,a,3,1
NULL,NULL,sudoku_trial,11,459138,0.0-10.0,NULL,24115,boards2x2,c,1,1
NULL,NULL,sudoku_trial,12,534049,0.0-11.0,NULL,74910,boards2x3,c,0,1
NULL,NULL,sudoku_trial,13,658622,0.0-12.0,NULL,NULL,boards2x4,b,4,
NULL,NULL,sudoku_trial,14,783842,0.0-13.0,NULL,NULL,boards2x4,c,2,
NULL,NULL,sudoku_trial,15,906062,0.0-14.0,NULL,NULL,boards2x4,a,4,
19614,NULL,instructions,16,925676,0.0-15.0,NULL,NULL,NULL,NULL,NULL,NULL
9135,"{"Q0":"MEAN79"}",survey-text,0,9138,0.0-0.0,NULL,NULL,NULL,NULL,NULL,NULL
14710,NULL,instructions,1,23849,0.0-1.0,NULL,NULL,NULL,NULL,NULL,NULL
230118,NULL,instructions,2,253967,0.0-2.0-0.0,NULL,NULL,NULL,NULL,NULL,NULL
7501,NULL,html-keyboard-response,3,261468,0.0-2.0-1.0,67,NULL,NULL,NULL,NULL,NULL
25600,NULL,instructions,4,287069,0.0-3.0,NULL,NULL,NULL,NULL,NULL,NULL
NULL,NULL,sudoku_trial,5,350539,0.0-4.0,NULL,63465,boards2x3,d,0,1
11489,NULL,instructions,6,362028,0.0-5.0,NULL,NULL,NULL,NULL,NULL,NULL
NULL,NULL,sudoku_trial,7,476430,0.0-6.0,NULL,114399,boards2x3,a,1,1
NULL,NULL,sudoku_trial,8,554294,0.0-7.0,NULL,77861,boards2x3,b,1,1
NULL,NULL,sudoku_trial,9,582596,0.0-8.0,NULL,28301,boards2x2,a,3,1
NULL,NULL,sudoku_trial,10,706253,0.0-9.0,NULL,NULL,boards2x4,b,4,
NULL,NULL,sudoku_trial,11,790196,0.0-10.0,NULL,83942,boards2x3,c,2,1
NULL,NULL,sudoku_trial,12,824380,0.0-11.0,NULL,34183,boards2x2,b,2,1
NULL,NULL,sudoku_trial,13,945876,0.0-12.0,NULL,NULL,boards2x4,a,3,
NULL,NULL,sudoku_trial,14,1067355,0.0-13.0,NULL,NULL,boards2x4,c,4,
NULL,NULL,sudoku_trial,15,1091193,0.0-14.0,NULL,23837,boards2x2,c,3,1
13759,NULL,instructions,16,1104953,0.0-15.0,NULL,NULL,NULL,NULL,NULL,NULL
8297,"{"Q0":"Grne89"}",survey-text,0,8303,0.0-0.0,NULL,NULL,NULL,NULL,NULL,NULL
18399,NULL,instructions,1,26702,0.0-1.0,NULL,NULL,NULL,NULL,NULL,NULL
191289,NULL,instructions,2,217991,0.0-2.0-0.0,NULL,NULL,NULL,NULL,NULL,NULL
7241,NULL,html-keyboard-response,3,225234,0.0-2.0-1.0,67,NULL,NULL,NULL,NULL,NULL
17844,NULL,instructions,4,243079,0.0-3.0,NULL,NULL,NULL,NULL,NULL,NULL
NULL,NULL,sudoku_trial,5,306192,0.0-4.0,NULL,63111,boards2x3,d,0,1
162926,NULL,instructions,6,469118,0.0-5.0,NULL,NULL,NULL,NULL,NULL,NULL
NULL,NULL,sudoku_trial,7,562983,0.0-6.0,NULL,93864,boards2x3,b,1,1
NULL,NULL,sudoku_trial,8,649926,0.0-7.0,NULL,86942,boards2x3,a,4,1
NULL,NULL,sudoku_trial,9,772422,0.0-8.0,NULL,NULL,boards2x4,a,1,
NULL,NULL,sudoku_trial,10,894318,0.0-9.0,NULL,NULL,boards2x4,c,2,
NULL,NULL,sudoku_trial,11,927805,0.0-10.0,NULL,33487,boards2x2,c,1,1
NULL,NULL,sudoku_trial,12,1003093,0.0-11.0,NULL,75287,boards2x3,c,0,1
NULL,NULL,sudoku_trial,13,1125470,0.0-12.0,NULL,NULL,boards2x4,b,3,
NULL,NULL,sudoku_trial,14,1148820,0.0-13.0,NULL,23350,boards2x2,b,1,1
NULL,NULL,sudoku_trial,15,1167668,0.0-14.0,NULL,18848,boards2x2,a,4,1
8264,NULL,instructions,16,1175932,0.0-15.0,NULL,NULL,NULL,NULL,NULL,NULL
15045,"{"Q0":"MESA92"}",survey-text,0,15049,0.0-0.0,NULL,NULL,NULL,NULL,NULL,NULL
22826,NULL,instructions,1,37876,0.0-1.0,NULL,NULL,NULL,NULL,NULL,NULL
247676,NULL,instructions,2,285552,0.0-2.0-0.0,NULL,NULL,NULL,NULL,NULL,NULL
9178,NULL,html-keyboard-response,3,294733,0.0-2.0-1.0,67,NULL,NULL,NULL,NULL,NULL
20993,NULL,instructions,4,315727,0.0-3.0,NULL,NULL,NULL,NULL,NULL,NULL
NULL,NULL,sudoku_trial,5,386120,0.0-4.0,NULL,70389,boards2x3,d,0,1
24430,NULL,instructions,6,410550,0.0-5.0,NULL,NULL,NULL,NULL,NULL,NULL
NULL,NULL,sudoku_trial,7,532805,0.0-6.0,NULL,NULL,boards2x4,c,2,
NULL,NULL,sudoku_trial,8,654996,0.0-7.0,NULL,NULL,boards2x3,c,0,
NULL,NULL,sudoku_trial,9,684579,0.0-8.0,NULL,29581,boards2x2,a,2,1
NULL,NULL,sudoku_trial,10,807130,0.0-9.0,NULL,NULL,boards2x4,b,0,
NULL,NULL,sudoku_trial,11,832992,0.0-10.0,NULL,25861,boards2x2,c,2,1
NULL,NULL,sudoku_trial,12,907184,0.0-11.0,NULL,74190,boards2x3,a,2,1
NULL,NULL,sudoku_trial,13,983343,0.0-12.0,NULL,76156,boards2x3,b,3,1
NULL,NULL,sudoku_trial,14,1007166,0.0-13.0,NULL,23821,boards2x2,b,1,1
NULL,NULL,sudoku_trial,15,1129053,0.0-14.0,NULL,NULL,boards2x4,a,3,
2311,NULL,instructions,16,1131364,0.0-15.0,NULL,NULL,NULL,NULL,NULL,NULL
16050,"{"Q0":"thth82"}",survey-text,0,16055,0.0-0.0,NULL,NULL,NULL,NULL,NULL,NULL
22896,NULL,instructions,1,38953,0.0-1.0,NULL,NULL,NULL,NULL,NULL,NULL
203322,NULL,instructions,2,242279,0.0-2.0-0.0,NULL,NULL,NULL,NULL,NULL,NULL
9093,NULL,html-keyboard-response,3,251376,0.0-2.0-1.0,67,NULL,NULL,NULL,NULL,NULL
32932,NULL,instructions,4,284309,0.0-3.0,NULL,NULL,NULL,NULL,NULL,NULL
NULL,NULL,sudoku_trial,5,345652,0.0-4.0,NULL,61331,boards2x3,d,0,1
49732,NULL,instructions,6,395385,0.0-5.0,NULL,NULL,NULL,NULL,NULL,NULL
NULL,NULL,sudoku_trial,7,518967,0.0-6.0,NULL,NULL,boards2x2,a,3,
NULL,NULL,sudoku_trial,8,601920,0.0-7.0,NULL,82947,boards2x3,b,3,1
NULL,NULL,sudoku_trial,9,685204,0.0-8.0,NULL,83280,boards2x3,a,4,1
NULL,NULL,sudoku_trial,10,810376,0.0-9.0,NULL,NULL,boards2x4,c,2,
NULL,NULL,sudoku_trial,11,933631,0.0-10.0,NULL,NULL,boards2x4,a,3,
NULL,NULL,sudoku_trial,12,962817,0.0-11.0,NULL,29184,boards2x2,c,3,1
NULL,NULL,sudoku_trial,13,1085809,0.0-12.0,NULL,NULL,boards2x4,b,1,
NULL,NULL,sudoku_trial,14,1109367,0.0-13.0,NULL,23551,boards2x2,b,4,1
NULL,NULL,sudoku_trial,15,1181148,0.0-14.0,NULL,71777,boards2x3,c,2,1
9175,NULL,instructions,16,1190323,0.0-15.0,NULL,NULL,NULL,NULL,NULL,NULL
10929,"{"Q0":"sian94"}",survey-text,0,10934,0.0-0.0,NULL,NULL,NULL,NULL,NULL,NULL
9153,NULL,instructions,1,20087,0.0-1.0,NULL,NULL,NULL,NULL,NULL,NULL
44271,NULL,instructions,2,64358,0.0-2.0-0.0,NULL,NULL,NULL,NULL,NULL,NULL
8162,NULL,html-keyboard-response,3,72520,0.0-2.0-1.0,67,NULL,NULL,NULL,NULL,NULL
10939,NULL,instructions,4,83460,0.0-3.0,NULL,NULL,NULL,NULL,NULL,NULL
NULL,NULL,sudoku_trial,5,114563,0.0-4.0,NULL,31102,boards2x3,d,0,1
14835,NULL,instructions,6,129399,0.0-5.0,NULL,NULL,NULL,NULL,NULL,NULL
NULL,NULL,sudoku_trial,7,153450,0.0-6.0,NULL,24049,boards2x2,c,2,1
NULL,NULL,sudoku_trial,8,274855,0.0-7.0,NULL,NULL,boards2x4,a,4,
NULL,NULL,sudoku_trial,9,294532,0.0-8.0,NULL,19675,boards2x2,b,3,1
NULL,NULL,sudoku_trial,10,348253,0.0-9.0,NULL,53717,boards2x3,a,1,1
NULL,NULL,sudoku_trial,11,376040,0.0-10.0,NULL,27784,boards2x2,a,4,1
NULL,NULL,sudoku_trial,12,429120,0.0-11.0,NULL,53078,boards2x3,c,1,1
NULL,NULL,sudoku_trial,13,550419,0.0-12.0,NULL,NULL,boards2x4,c,0,
NULL,NULL,sudoku_trial,14,671749,0.0-13.0,NULL,NULL,boards2x4,b,1,
NULL,NULL,sudoku_trial,15,708366,0.0-14.0,NULL,36611,boards2x3,b,2,1
3640,NULL,instructions,16,712006,0.0-15.0,NULL,NULL,NULL,NULL,NULL,NULL
9770,"{"Q0":"kray94"}",survey-text,0,9780,0.0-0.0,NULL,NULL,NULL,NULL,NULL,NULL
10394,NULL,instructions,1,20175,0.0-1.0,NULL,NULL,NULL,NULL,NULL,NULL
56818,NULL,instructions,2,76997,0.0-2.0-0.0,NULL,NULL,NULL,NULL,NULL,NULL
4842,NULL,html-keyboard-response,3,81842,0.0-2.0-1.0,67,NULL,NULL,NULL,NULL,NULL
13982,NULL,instructions,4,95827,0.0-3.0,NULL,NULL,NULL,NULL,NULL,NULL
NULL,NULL,sudoku_trial,5,161423,0.0-4.0,NULL,65587,boards2x3,d,0,1
31872,NULL,instructions,6,193296,0.0-5.0,NULL,NULL,NULL,NULL,NULL,NULL
NULL,NULL,sudoku_trial,7,315358,0.0-6.0,NULL,NULL,boards2x4,c,1,
NULL,NULL,sudoku_trial,8,395000,0.0-7.0,NULL,79636,boards2x3,b,4,1
NULL,NULL,sudoku_trial,9,455779,0.0-8.0,NULL,60769,boards2x3,a,1,1
NULL,NULL,sudoku_trial,10,578750,0.0-9.0,NULL,NULL,boards2x4,b,3,
NULL,NULL,sudoku_trial,11,642940,0.0-10.0,NULL,64185,boards2x3,c,2,1
NULL,NULL,sudoku_trial,12,664586,0.0-11.0,NULL,21641,boards2x2,a,0,1
NULL,NULL,sudoku_trial,13,682853,0.0-12.0,NULL,18263,boards2x2,b,2,1
NULL,NULL,sudoku_trial,14,804167,0.0-13.0,NULL,NULL,boards2x4,a,1,
NULL,NULL,sudoku_trial,15,821541,0.0-14.0,NULL,17371,boards2x2,c,3,1
10887,NULL,instructions,16,832430,0.0-15.0,NULL,NULL,NULL,NULL,NULL,NULL
17622,"{"Q0":"kona85"}",survey-text,0,17624,0.0-0.0,NULL,NULL,NULL,NULL,NULL,NULL
376418,NULL,instructions,1,394043,0.0-1.0,NULL,NULL,NULL,NULL,NULL,NULL
62636,NULL,instructions,2,456680,0.0-2.0-0.0,NULL,NULL,NULL,NULL,NULL,NULL
25912,NULL,html-keyboard-response,3,482594,0.0-2.0-1.0,82,NULL,NULL,NULL,NULL,NULL
6027,NULL,instructions,4,488621,0.0-2.1-0.1,NULL,NULL,NULL,NULL,NULL,NULL
33754,NULL,html-keyboard-response,5,522376,0.0-2.1-1.1,67,NULL,NULL,NULL,NULL,NULL
31001,NULL,instructions,6,553377,0.0-3.0,NULL,NULL,NULL,NULL,NULL,NULL
NULL,NULL,sudoku_trial,7,596489,0.0-4.0,NULL,43109,boards2x3,d,0,1
26599,NULL,instructions,8,623088,0.0-5.0,NULL,NULL,NULL,NULL,NULL,NULL
NULL,NULL,sudoku_trial,9,747575,0.0-6.0,NULL,NULL,boards2x4,b,3,
NULL,NULL,sudoku_trial,10,777712,0.0-7.0,NULL,30134,boards2x2,a,0,1
NULL,NULL,sudoku_trial,11,922611,0.0-8.0,NULL,144897,boards2x3,a,2,1
NULL,NULL,sudoku_trial,12,952971,0.0-9.0,NULL,30357,boards2x2,c,1,1
NULL,NULL,sudoku_trial,13,980422,0.0-10.0,NULL,27448,boards2x2,b,2,1
NULL,NULL,sudoku_trial,14,1105503,0.0-11.0,NULL,NULL,boards2x4,a,1,
NULL,NULL,sudoku_trial,15,1222843,0.0-12.0,NULL,117335,boards2x3,b,3,1
NULL,NULL,sudoku_trial,16,1348046,0.0-13.0,NULL,NULL,boards2x4,c,3,
NULL,NULL,sudoku_trial,17,1411684,0.0-14.0,NULL,63636,boards2x3,c,3,1
2810,NULL,instructions,18,1414495,0.0-15.0,NULL,NULL,NULL,NULL,NULL,NULL
10868,"{"Q0":"voig95"}",survey-text,0,10876,0.0-0.0,NULL,NULL,NULL,NULL,NULL,NULL
21655,NULL,instructions,1,32534,0.0-1.0,NULL,NULL,NULL,NULL,NULL,NULL
52041,NULL,instructions,2,84577,0.0-2.0-0.0,NULL,NULL,NULL,NULL,NULL,NULL
5298,NULL,html-keyboard-response,3,89877,0.0-2.0-1.0,67,NULL,NULL,NULL,NULL,NULL
36930,NULL,instructions,4,126810,0.0-3.0,NULL,NULL,NULL,NULL,NULL,NULL
NULL,NULL,sudoku_trial,5,188363,0.0-4.0,NULL,61547,boards2x3,d,0,1
40600,NULL,instructions,6,228963,0.0-5.0,NULL,NULL,NULL,NULL,NULL,NULL
NULL,NULL,sudoku_trial,7,354151,0.0-6.0,NULL,NULL,boards2x4,a,0,
NULL,NULL,sudoku_trial,8,376026,0.0-7.0,NULL,21872,boards2x2,a,3,1
NULL,NULL,sudoku_trial,9,441538,0.0-8.0,NULL,65507,boards2x3,a,4,1
NULL,NULL,sudoku_trial,10,563345,0.0-9.0,NULL,NULL,boards2x4,c,3,
NULL,NULL,sudoku_trial,11,585917,0.0-10.0,NULL,22567,boards2x2,c,2,1
NULL,NULL,sudoku_trial,12,652565,0.0-11.0,NULL,66644,boards2x3,c,4,1
NULL,NULL,sudoku_trial,13,671033,0.0-12.0,NULL,18464,boards2x2,b,3,1
NULL,NULL,sudoku_trial,14,737969,0.0-13.0,NULL,66932,boards2x3,b,0,1
NULL,NULL,sudoku_trial,15,862624,0.0-14.0,NULL,NULL,boards2x4,b,0,
44866,NULL,instructions,16,907490,0.0-15.0,NULL,NULL,NULL,NULL,NULL,NULL
8945,"{"Q0":"bana89"}",survey-text,0,8952,0.0-0.0,NULL,NULL,NULL,NULL,NULL,NULL
22534,NULL,instructions,1,31486,0.0-1.0,NULL,NULL,NULL,NULL,NULL,NULL
36032,NULL,instructions,2,67518,0.0-2.0-0.0,NULL,NULL,NULL,NULL,NULL,NULL
5021,NULL,html-keyboard-response,3,72570,0.0-2.0-1.0,67,NULL,NULL,NULL,NULL,NULL
25335,NULL,instructions,4,97905,0.0-3.0,NULL,NULL,NULL,NULL,NULL,NULL
NULL,NULL,sudoku_trial,5,127273,0.0-4.0,NULL,29361,boards2x3,d,0,1
29001,NULL,instructions,6,156274,0.0-5.0,NULL,NULL,NULL,NULL,NULL,NULL
NULL,NULL,sudoku_trial,7,270645,0.0-6.0,NULL,114371,boards2x4,a,2,1
NULL,NULL,sudoku_trial,8,290511,0.0-7.0,NULL,19850,boards2x2,c,4,1
NULL,NULL,sudoku_trial,9,333365,0.0-8.0,NULL,42854,boards2x3,a,3,1
NULL,NULL,sudoku_trial,10,434891,0.0-9.0,NULL,101526,boards2x4,c,1,1
NULL,NULL,sudoku_trial,11,546264,0.0-10.0,NULL,111373,boards2x4,b,0,1
NULL,NULL,sudoku_trial,12,602574,0.0-11.0,NULL,56310,boards2x3,c,3,1
NULL,NULL,sudoku_trial,13,617796,0.0-12.0,NULL,15222,boards2x2,a,0,1
NULL,NULL,sudoku_trial,14,671964,0.0-13.0,NULL,54153,boards2x3,b,4,1
NULL,NULL,sudoku_trial,15,696213,0.0-14.0,NULL,24201,boards2x2,b,1,1
23188,NULL,instructions,16,719401,0.0-15.0,NULL,NULL,NULL,NULL,NULL,NULL
12659,"{"Q0":"arrk99"}",survey-text,0,12663,0.0-0.0,NULL,NULL,NULL,NULL,NULL,NULL
8420,NULL,instructions,1,21083,0.0-1.0,NULL,NULL,NULL,NULL,NULL,NULL
87202,NULL,instructions,2,108285,0.0-2.0-0.0,NULL,NULL,NULL,NULL,NULL,NULL
4237,NULL,html-keyboard-response,3,112525,0.0-2.0-1.0,67,NULL,NULL,NULL,NULL,NULL
11289,NULL,instructions,4,123815,0.0-3.0,NULL,NULL,NULL,NULL,NULL,NULL
NULL,NULL,sudoku_trial,5,162415,0.0-4.0,NULL,38597,boards2x3,d,0,1
14066,NULL,instructions,6,176481,0.0-5.0,NULL,NULL,NULL,NULL,NULL,NULL
NULL,NULL,sudoku_trial,7,196374,0.0-6.0,NULL,19890,boards2x2,c,4,1
NULL,NULL,sudoku_trial,8,212411,0.0-7.0,NULL,16035,boards2x2,b,2,1
NULL,NULL,sudoku_trial,9,284010,0.0-8.0,NULL,71596,boards2x3,c,3,1
NULL,NULL,sudoku_trial,10,406003,0.0-9.0,NULL,NULL,boards2x4,b,0,
NULL,NULL,sudoku_trial,11,457669,0.0-10.0,NULL,51661,boards2x3,a,1,1
NULL,NULL,sudoku_trial,12,528249,0.0-11.0,NULL,70578,boards2x3,b,1,1
NULL,NULL,sudoku_trial,13,649909,0.0-12.0,NULL,NULL,boards2x4,a,2,
NULL,NULL,sudoku_trial,14,684388,0.0-13.0,NULL,34473,boards2x2,a,3,1
NULL,NULL,sudoku_trial,15,806987,0.0-14.0,NULL,NULL,boards2x4,c,3,
14983,NULL,instructions,16,821970,0.0-15.0,NULL,NULL,NULL,NULL,NULL,NULL
20391,"{"Q0":"scas95"}",survey-text,0,20396,0.0-0.0,NULL,NULL,NULL,NULL,NULL,NULL
1576,NULL,instructions,1,21972,0.0-1.0,NULL,NULL,NULL,NULL,NULL,NULL
5326,NULL,instructions,2,27299,0.0-2.0-0.0,NULL,NULL,NULL,NULL,NULL,NULL
3744,NULL,html-keyboard-response,3,31043,0.0-2.0-1.0,67,NULL,NULL,NULL,NULL,NULL
20894,NULL,instructions,4,51938,0.0-3.0,NULL,NULL,NULL,NULL,NULL,NULL
NULL,NULL,sudoku_trial,5,117569,0.0-4.0,NULL,65626,boards2x3,d,0,1
18817,NULL,instructions,6,136386,0.0-5.0,NULL,NULL,NULL,NULL,NULL,NULL
NULL,NULL,sudoku_trial,7,261440,0.0-6.0,NULL,NULL,boards2x4,c,4,
NULL,NULL,sudoku_trial,8,345944,0.0-7.0,NULL,84500,boards2x3,a,3,1
NULL,NULL,sudoku_trial,9,473287,0.0-8.0,NULL,NULL,boards2x4,a,0,
NULL,NULL,sudoku_trial,10,556495,0.0-9.0,NULL,83204,boards2x3,b,0,1
NULL,NULL,sudoku_trial,11,594637,0.0-10.0,NULL,38140,boards2x2,b,2,1
NULL,NULL,sudoku_trial,12,628982,0.0-11.0,NULL,34342,boards2x2,c,0,1
NULL,NULL,sudoku_trial,13,657981,0.0-12.0,NULL,28998,boards2x2,a,3,1
NULL,NULL,sudoku_trial,14,746342,0.0-13.0,NULL,88356,boards2x3,c,3,1
NULL,NULL,sudoku_trial,15,878886,0.0-14.0,NULL,NULL,boards2x4,b,3,
5285,NULL,instructions,16,884171,0.0-15.0,NULL,NULL,NULL,NULL,NULL,NULL
11025,"{"Q0":"viad96"}",survey-text,0,11037,0.0-0.0,NULL,NULL,NULL,NULL,NULL,NULL
11333,NULL,instructions,1,22372,0.0-1.0,NULL,NULL,NULL,NULL,NULL,NULL
34028,NULL,instructions,2,56400,0.0-2.0-0.0,NULL,NULL,NULL,NULL,NULL,NULL
4988,NULL,html-keyboard-response,3,61392,0.0-2.0-1.0,67,NULL,NULL,NULL,NULL,NULL
14482,NULL,instructions,4,75875,0.0-3.0,NULL,NULL,NULL,NULL,NULL,NULL
NULL,NULL,sudoku_trial,5,112481,0.0-4.0,NULL,36597,boards2x3,d,0,1
11711,NULL,instructions,6,124192,0.0-5.0,NULL,NULL,NULL,NULL,NULL,NULL
NULL,NULL,sudoku_trial,7,250030,0.0-6.0,NULL,NULL,boards2x4,b,3,
NULL,NULL,sudoku_trial,8,314874,0.0-7.0,NULL,64839,boards2x3,b,2,1
NULL,NULL,sudoku_trial,9,337974,0.0-8.0,NULL,23096,boards2x2,b,3,1
NULL,NULL,sudoku_trial,10,411429,0.0-9.0,NULL,73451,boards2x3,a,2,1
NULL,NULL,sudoku_trial,11,435094,0.0-10.0,NULL,23661,boards2x2,c,4,1
NULL,NULL,sudoku_trial,12,496288,0.0-11.0,NULL,61191,boards2x3,c,0,1
NULL,NULL,sudoku_trial,13,514050,0.0-12.0,NULL,17758,boards2x2,a,2,1
NULL,NULL,sudoku_trial,14,636233,0.0-13.0,NULL,NULL,boards2x4,a,3,
NULL,NULL,sudoku_trial,15,756456,0.0-14.0,NULL,120219,boards2x4,c,3,1
16256,NULL,instructions,16,772712,0.0-15.0,NULL,NULL,NULL,NULL,NULL,NULL
