view_history,rt,trial_type,trial_index,time_elapsed,internal_node_id,responses,stimulus,key_press,success_time,board_size,board_set,board_no,success
"[{"page_index":0,"viewing_time":73902},{"page_index":1,"viewing_time":2723},{"page_index":2,"viewing_time":1359},{"page_index":3,"viewing_time":1616}]",79601,instructions,0,79604,0.0-0.0,NULL,NULL,NULL,NULL,NULL,NULL,NULL,NULL
NULL,3525,survey-multi-choice,1,83138,0.0-1.0,"{"Q0":"I agree to participate in this research study"}",NULL,NULL,NULL,NULL,NULL,NULL,NULL
"[{"page_index":0,"viewing_time":2015},{"page_index":1,"viewing_time":1415},{"page_index":0,"viewing_time":6925},{"page_index":1,"viewing_time":1206},{"page_index":2,"viewing_time":1969}]",13530,instructions,2,96669,0.0-2.0,NULL,NULL,NULL,NULL,NULL,NULL,NULL,NULL
NULL,14656,survey-likert,3,111328,0.0-3.0,"{"Q0":3,"Q1":2,"Q2":3}",NULL,NULL,NULL,NULL,NULL,NULL,NULL
NULL,40670,survey-likert,4,152000,0.0-4.0,"{"Q0":2,"Q1":2,"Q2":3}",NULL,NULL,NULL,NULL,NULL,NULL,NULL
NULL,13744,survey-likert,5,165747,0.0-5.0,"{"Q0":2,"Q1":2,"Q2":2}",NULL,NULL,NULL,NULL,NULL,NULL,NULL
NULL,14432,survey-likert,6,180181,0.0-6.0,"{"Q0":"","Q1":1,"Q2":1}",NULL,NULL,NULL,NULL,NULL,NULL,NULL
NULL,10749,survey-likert,7,190932,0.0-7.0,"{"Q0":1,"Q1":"","Q2":1}",NULL,NULL,NULL,NULL,NULL,NULL,NULL
NULL,56666,survey-likert,8,247601,0.0-8.0,"{"Q0":3,"Q1":2,"Q2":1}",NULL,NULL,NULL,NULL,NULL,NULL,NULL
"[{"page_index":0,"viewing_time":5325}]",5325,instructions,9,252926,0.0-9.0,NULL,NULL,NULL,NULL,NULL,NULL,NULL,NULL
"[{"page_index":0,"viewing_time":1170}]",1171,instructions,10,254097,0.0-10.0,NULL,NULL,NULL,NULL,NULL,NULL,NULL,NULL
NULL,11598,survey-likert,11,265697,0.0-11.0,"{"Q0":3,"Q1":3,"Q2":1}",NULL,NULL,NULL,NULL,NULL,NULL,NULL
NULL,17624,survey-likert,12,283324,0.0-12.0,"{"Q0":4,"Q1":2,"Q2":2}",NULL,NULL,NULL,NULL,NULL,NULL,NULL
NULL,3643,survey-multi-choice,13,286970,0.0-13.0,"{"Q0":"No, I have never solved Sudoku puzzles before"}",NULL,NULL,NULL,NULL,NULL,NULL,NULL
NULL,5329,survey-multi-choice,14,292304,0.0-15.0,"{"Q0":"Undergraduate degree (e.g., BA)"}",NULL,NULL,NULL,NULL,NULL,NULL,NULL
NULL,12650,survey-text,15,304956,0.0-16.0-0.0,"{"Q0":"Biochemistry and Cell Biology"}",NULL,NULL,NULL,NULL,NULL,NULL,NULL
NULL,3032,survey-multi-choice,16,307992,0.0-19.0,"{"Q0":"18 - 25 years of age"}",NULL,NULL,NULL,NULL,NULL,NULL,NULL
NULL,5667,survey-text,17,313659,0.0-20.0,"{"Q0":"Female"}",NULL,NULL,NULL,NULL,NULL,NULL,NULL
NULL,5921,survey-multi-choice,18,319585,0.0-21.0,"{"Q0":"White"}",NULL,NULL,NULL,NULL,NULL,NULL,NULL
"[{"page_index":0,"viewing_time":1684},{"page_index":1,"viewing_time":59831},{"page_index":2,"viewing_time":9122},{"page_index":3,"viewing_time":8013},{"page_index":4,"viewing_time":6616},{"page_index":5,"viewing_time":1792},{"page_index":4,"viewing_time":4758},{"page_index":5,"viewing_time":971}]",92788,instructions,19,412373,0.0-22.0-0.0,NULL,NULL,NULL,NULL,NULL,NULL,NULL,NULL
NULL,2088,html-keyboard-response,20,414462,0.0-22.0-1.0,NULL,"Are you ready to solve a practice Sudoku? <br><br> Yes, I am ready! (Press C) <br><br> Not yet, I would like to read the rules once again, please! (Press R)",67,NULL,NULL,NULL,NULL,NULL
"[{"page_index":0,"viewing_time":2709}]",2709,instructions,21,417172,0.0-23.0,NULL,NULL,NULL,NULL,NULL,NULL,NULL,NULL
NULL,5066,survey-likert,22,422240,0.0-24.0,"{"Q0":4}",NULL,NULL,NULL,NULL,NULL,NULL,NULL
"[{"page_index":0,"viewing_time":9779},{"page_index":1,"viewing_time":6817}]",16596,instructions,23,438836,0.0-25.0,NULL,NULL,NULL,NULL,NULL,NULL,NULL,NULL
NULL,18423,image-keyboard-response,24,457260,0.0-26.0,NULL,img/app1.png,68,NULL,NULL,NULL,NULL,NULL
NULL,1805,image-keyboard-response,25,459066,0.0-27.0,NULL,img/app2.png,68,NULL,NULL,NULL,NULL,NULL
NULL,7136,image-keyboard-response,26,466202,0.0-28.0,NULL,img/app3.png,75,NULL,NULL,NULL,NULL,NULL
NULL,17742,image-keyboard-response,27,483948,0.0-29.0,NULL,img/app4.png,68,NULL,NULL,NULL,NULL,NULL
NULL,3823,image-keyboard-response,28,487771,0.0-30.0,NULL,img/app5.png,68,NULL,NULL,NULL,NULL,NULL
"[{"page_index":0,"viewing_time":2622},{"page_index":1,"viewing_time":17236},{"page_index":2,"viewing_time":2883}]",22742,instructions,29,510513,0.0-31.0,NULL,NULL,NULL,NULL,NULL,NULL,NULL,NULL
NULL,NULL,sudoku_trial,30,632725,0.0-32.0,NULL,NULL,NULL,NULL,boards2x3,a,1,
"[{"page_index":0,"viewing_time":2616},{"page_index":1,"viewing_time":2077}]",4693,instructions,31,637418,0.0-33.0,NULL,NULL,NULL,NULL,NULL,NULL,NULL,NULL
NULL,8909,survey-likert,32,646330,0.0-34.0,"{"Q0":4,"Q1":3,"Q2":5}",NULL,NULL,NULL,NULL,NULL,NULL,NULL
NULL,9166,survey-likert,33,655497,0.0-35.0,"{"Q0":5,"Q1":4,"Q2":2}",NULL,NULL,NULL,NULL,NULL,NULL,NULL
NULL,9291,survey-likert,34,664790,0.0-36.0,"{"Q0":6,"Q1":4,"Q2":4,"Q3":1}",NULL,NULL,NULL,NULL,NULL,NULL,NULL
"[{"page_index":0,"viewing_time":7096}]",7096,instructions,35,671887,0.0-37.0,NULL,NULL,NULL,NULL,NULL,NULL,NULL,NULL
NULL,10222,survey-likert,36,682111,0.0-38.0,"{"Q0":4,"Q1":3,"Q2":1}",NULL,NULL,NULL,NULL,NULL,NULL,NULL
NULL,17927,survey-likert,37,700041,0.0-39.0,"{"Q0":4,"Q1":7,"Q2":5}",NULL,NULL,NULL,NULL,NULL,NULL,NULL
"[{"page_index":0,"viewing_time":5671}]",5671,instructions,38,705713,0.0-40.0,NULL,NULL,NULL,NULL,NULL,NULL,NULL,NULL
NULL,9847,survey-likert,39,715562,0.0-41.0,"{"Q0":4}",NULL,NULL,NULL,NULL,NULL,NULL,NULL
"[{"page_index":0,"viewing_time":2366},{"page_index":1,"viewing_time":1581}]",3947,instructions,40,719509,0.0-42.0,NULL,NULL,NULL,NULL,NULL,NULL,NULL,NULL
NULL,6184,image-keyboard-response,41,725694,0.0-43.0,NULL,img/app6.png,68,NULL,NULL,NULL,NULL,NULL
NULL,1136,image-keyboard-response,42,726830,0.0-44.0,NULL,img/app7.png,68,NULL,NULL,NULL,NULL,NULL
NULL,528,image-keyboard-response,43,727359,0.0-45.0,NULL,img/app8.png,68,NULL,NULL,NULL,NULL,NULL
NULL,444,image-keyboard-response,44,727803,0.0-46.0,NULL,img/app9.png,68,NULL,NULL,NULL,NULL,NULL
NULL,390,image-keyboard-response,45,728194,0.0-47.0,NULL,img/app10.png,68,NULL,NULL,NULL,NULL,NULL
"[{"page_index":0,"viewing_time":1810}]",1810,instructions,46,730004,0.0-48.0,NULL,NULL,NULL,NULL,NULL,NULL,NULL,NULL
NULL,NULL,sudoku_trial,47,851834,0.0-49.0,NULL,NULL,NULL,NULL,boards2x3,b,4,
NULL,NULL,sudoku_trial,48,949514,0.0-50.0,NULL,NULL,NULL,97677,boards2x3,c,3,1
NULL,NULL,sudoku_trial,49,1035686,0.0-51.0,NULL,NULL,NULL,86169,boards2x3,a,3,1
NULL,NULL,sudoku_trial,50,1118550,0.0-52.0,NULL,NULL,NULL,82862,boards2x3,c,1,1
NULL,NULL,sudoku_trial,51,1195473,0.0-53.0,NULL,NULL,NULL,76921,boards2x3,b,0,1
NULL,NULL,sudoku_trial,52,1297399,0.0-54.0,NULL,NULL,NULL,101925,boards2x3,b,2,1
"[{"page_index":0,"viewing_time":9432},{"page_index":1,"viewing_time":1883}]",11315,instructions,53,1308715,0.0-55.0,NULL,NULL,NULL,NULL,NULL,NULL,NULL,NULL
NULL,12378,survey-likert,54,1321095,0.0-56.0,"{"Q0":4,"Q1":0,"Q2":8}",NULL,NULL,NULL,NULL,NULL,NULL,NULL
NULL,18763,survey-likert,55,1339861,0.0-57.0,"{"Q0":8,"Q1":0,"Q2":1}",NULL,NULL,NULL,NULL,NULL,NULL,NULL
NULL,9944,survey-likert,56,1349808,0.0-58.0,"{"Q0":7,"Q1":0,"Q2":0,"Q3":0}",NULL,NULL,NULL,NULL,NULL,NULL,NULL
"[{"page_index":0,"viewing_time":2408}]",2409,instructions,57,1352217,0.0-59.0,NULL,NULL,NULL,NULL,NULL,NULL,NULL,NULL
NULL,8877,survey-likert,58,1361097,0.0-60.0,"{"Q0":0,"Q1":7,"Q2":2}",NULL,NULL,NULL,NULL,NULL,NULL,NULL
NULL,15211,survey-likert,59,1376310,0.0-61.0,"{"Q0":7,"Q1":4,"Q2":4}",NULL,NULL,NULL,NULL,NULL,NULL,NULL
"[{"page_index":0,"viewing_time":2229}]",2229,instructions,60,1378539,0.0-62.0,NULL,NULL,NULL,NULL,NULL,NULL,NULL,NULL
NULL,11721,survey-likert,61,1390263,0.0-63.0,"{"Q0":4}",NULL,NULL,NULL,NULL,NULL,NULL,NULL
"[{"page_index":0,"viewing_time":953},{"page_index":1,"viewing_time":1641}]",2595,instructions,62,1392858,0.0-64.0,NULL,NULL,NULL,NULL,NULL,NULL,NULL,NULL
NULL,3015,image-keyboard-response,63,1395874,0.0-65.0,NULL,img/app11.png,68,NULL,NULL,NULL,NULL,NULL
NULL,221,image-keyboard-response,64,1396095,0.0-66.0,NULL,img/app12.png,68,NULL,NULL,NULL,NULL,NULL
NULL,197,image-keyboard-response,65,1396293,0.0-67.0,NULL,img/app13.png,68,NULL,NULL,NULL,NULL,NULL
NULL,222,image-keyboard-response,66,1396515,0.0-68.0,NULL,img/app14.png,68,NULL,NULL,NULL,NULL,NULL
NULL,253,image-keyboard-response,67,1396768,0.0-69.0,NULL,img/app15.png,68,NULL,NULL,NULL,NULL,NULL
"[{"page_index":0,"viewing_time":1552}]",1553,instructions,68,1398321,0.0-70.0,NULL,NULL,NULL,NULL,NULL,NULL,NULL,NULL
"[{"page_index":0,"viewing_time":3139},{"page_index":1,"viewing_time":1693},{"page_index":0,"viewing_time":3165},{"page_index":1,"viewing_time":1494},{"page_index":2,"viewing_time":1100},{"page_index":3,"viewing_time":1572}]",12163,instructions,69,1410486,0.0-71.0,NULL,NULL,NULL,NULL,NULL,NULL,NULL,NULL
NULL,9629,survey-text,70,1420117,0.0-72.0,"{"Q0":"m.hysi@jacobs-university.de"}",NULL,NULL,NULL,NULL,NULL,NULL,NULL
"[{"page_index":0,"viewing_time":4512},{"page_index":1,"viewing_time":3630},{"page_index":2,"viewing_time":1303},{"page_index":3,"viewing_time":1626}]",11072,instructions,0,11073,0.0-0.0,NULL,NULL,NULL,NULL,NULL,NULL,NULL,NULL
NULL,3879,survey-multi-choice,1,14955,0.0-1.0,"{"Q0":"I agree to participate in this research study"}",NULL,NULL,NULL,NULL,NULL,NULL,NULL
"[{"page_index":0,"viewing_time":1393},{"page_index":1,"viewing_time":1014},{"page_index":2,"viewing_time":833}]",3241,instructions,2,18197,0.0-2.0,NULL,NULL,NULL,NULL,NULL,NULL,NULL,NULL
NULL,15731,survey-likert,3,33930,0.0-3.0,"{"Q0":3,"Q1":2,"Q2":3}",NULL,NULL,NULL,NULL,NULL,NULL,NULL
NULL,9367,survey-likert,4,43299,0.0-4.0,"{"Q0":2,"Q1":2,"Q2":3}",NULL,NULL,NULL,NULL,NULL,NULL,NULL
NULL,8192,survey-likert,5,51493,0.0-5.0,"{"Q0":2,"Q1":2,"Q2":2}",NULL,NULL,NULL,NULL,NULL,NULL,NULL
NULL,16997,survey-likert,6,68492,0.0-6.0,"{"Q0":2,"Q1":1,"Q2":1}",NULL,NULL,NULL,NULL,NULL,NULL,NULL
NULL,18846,survey-likert,7,87340,0.0-7.0,"{"Q0":1,"Q1":2,"Q2":1}",NULL,NULL,NULL,NULL,NULL,NULL,NULL
NULL,34962,survey-likert,8,122304,0.0-8.0,"{"Q0":2,"Q1":2,"Q2":0}",NULL,NULL,NULL,NULL,NULL,NULL,NULL
"[{"page_index":0,"viewing_time":3433}]",3433,instructions,9,125738,0.0-9.0,NULL,NULL,NULL,NULL,NULL,NULL,NULL,NULL
"[{"page_index":0,"viewing_time":961}]",961,instructions,10,126700,0.0-10.0,NULL,NULL,NULL,NULL,NULL,NULL,NULL,NULL
NULL,17916,survey-likert,11,144618,0.0-11.0,"{"Q0":1,"Q1":0,"Q2":1}",NULL,NULL,NULL,NULL,NULL,NULL,NULL
NULL,14733,survey-likert,12,159353,0.0-12.0,"{"Q0":3,"Q1":1,"Q2":3}",NULL,NULL,NULL,NULL,NULL,NULL,NULL
NULL,3359,survey-multi-choice,13,162714,0.0-13.0,"{"Q0":"No, I have never solved Sudoku puzzles before"}",NULL,NULL,NULL,NULL,NULL,NULL,NULL
NULL,4096,survey-multi-choice,14,166815,0.0-15.0,"{"Q0":"Graduate degree (e.g., MA, MSc)"}",NULL,NULL,NULL,NULL,NULL,NULL,NULL
NULL,5056,survey-text,15,171873,0.0-16.0-0.0,"{"Q0":"Law"}",NULL,NULL,NULL,NULL,NULL,NULL,NULL
NULL,2301,survey-multi-choice,16,174180,0.0-19.0,"{"Q0":"18 - 25 years of age"}",NULL,NULL,NULL,NULL,NULL,NULL,NULL
NULL,4414,survey-text,17,178595,0.0-20.0,"{"Q0":"Female"}",NULL,NULL,NULL,NULL,NULL,NULL,NULL
NULL,3989,survey-multi-choice,18,182591,0.0-21.0,"{"Q0":"White"}",NULL,NULL,NULL,NULL,NULL,NULL,NULL
"[{"page_index":0,"viewing_time":1309},{"page_index":1,"viewing_time":16719},{"page_index":2,"viewing_time":8132},{"page_index":3,"viewing_time":4947},{"page_index":4,"viewing_time":6477},{"page_index":5,"viewing_time":1394}]",38979,instructions,19,221570,0.0-22.0-0.0,NULL,NULL,NULL,NULL,NULL,NULL,NULL,NULL
NULL,3104,html-keyboard-response,20,224675,0.0-22.0-1.0,NULL,"Are you ready to solve a practice Sudoku? <br><br> Yes, I am ready! (Press C) <br><br> Not yet, I would like to read the rules once again, please! (Press R)",67,NULL,NULL,NULL,NULL,NULL
"[{"page_index":0,"viewing_time":2436}]",2437,instructions,21,227113,0.0-23.0,NULL,NULL,NULL,NULL,NULL,NULL,NULL,NULL
NULL,15455,survey-likert,22,242570,0.0-24.0,"{"Q0":5}",NULL,NULL,NULL,NULL,NULL,NULL,NULL
"[{"page_index":0,"viewing_time":7821},{"page_index":1,"viewing_time":1579}]",9400,instructions,23,251970,0.0-25.0,NULL,NULL,NULL,NULL,NULL,NULL,NULL,NULL
NULL,24841,image-keyboard-response,24,276813,0.0-26.0,NULL,img/app1.png,68,NULL,NULL,NULL,NULL,NULL
NULL,14464,image-keyboard-response,25,291278,0.0-27.0,NULL,img/app2.png,75,NULL,NULL,NULL,NULL,NULL
NULL,4166,image-keyboard-response,26,295445,0.0-28.0,NULL,img/app3.png,68,NULL,NULL,NULL,NULL,NULL
NULL,12973,image-keyboard-response,27,308419,0.0-29.0,NULL,img/app4.png,68,NULL,NULL,NULL,NULL,NULL
NULL,50103,image-keyboard-response,28,358522,0.0-30.0,NULL,img/app5.png,75,NULL,NULL,NULL,NULL,NULL
"[{"page_index":0,"viewing_time":1842},{"page_index":1,"viewing_time":3222},{"page_index":2,"viewing_time":6581}]",11647,instructions,29,370170,0.0-31.0,NULL,NULL,NULL,NULL,NULL,NULL,NULL,NULL
NULL,NULL,sudoku_trial,30,492018,0.0-32.0,NULL,NULL,NULL,NULL,boards2x3,a,1,
"[{"page_index":0,"viewing_time":1954},{"page_index":1,"viewing_time":3882}]",5836,instructions,31,497854,0.0-33.0,NULL,NULL,NULL,NULL,NULL,NULL,NULL,NULL
NULL,14284,survey-likert,32,512141,0.0-34.0,"{"Q0":5,"Q1":5,"Q2":4}",NULL,NULL,NULL,NULL,NULL,NULL,NULL
NULL,8829,survey-likert,33,520971,0.0-35.0,"{"Q0":4,"Q1":1,"Q2":1}",NULL,NULL,NULL,NULL,NULL,NULL,NULL
NULL,13209,survey-likert,34,534183,0.0-36.0,"{"Q0":4,"Q1":4,"Q2":3,"Q3":6}",NULL,NULL,NULL,NULL,NULL,NULL,NULL
"[{"page_index":0,"viewing_time":1517}]",1517,instructions,35,535700,0.0-37.0,NULL,NULL,NULL,NULL,NULL,NULL,NULL,NULL
NULL,14452,survey-likert,36,550154,0.0-38.0,"{"Q0":4,"Q1":5,"Q2":3}",NULL,NULL,NULL,NULL,NULL,NULL,NULL
NULL,11835,survey-likert,37,561990,0.0-39.0,"{"Q0":5,"Q1":5,"Q2":5}",NULL,NULL,NULL,NULL,NULL,NULL,NULL
"[{"page_index":0,"viewing_time":2528}]",2528,instructions,38,564518,0.0-40.0,NULL,NULL,NULL,NULL,NULL,NULL,NULL,NULL
NULL,9469,survey-likert,39,573987,0.0-41.0,"{"Q0":3}",NULL,NULL,NULL,NULL,NULL,NULL,NULL
"[{"page_index":0,"viewing_time":1457},{"page_index":1,"viewing_time":1110}]",2567,instructions,40,576555,0.0-42.0,NULL,NULL,NULL,NULL,NULL,NULL,NULL,NULL
NULL,3979,image-keyboard-response,41,580535,0.0-43.0,NULL,img/app6.png,75,NULL,NULL,NULL,NULL,NULL
NULL,830,image-keyboard-response,42,581366,0.0-44.0,NULL,img/app7.png,75,NULL,NULL,NULL,NULL,NULL
NULL,1437,image-keyboard-response,43,582804,0.0-45.0,NULL,img/app8.png,75,NULL,NULL,NULL,NULL,NULL
NULL,527,image-keyboard-response,44,583332,0.0-46.0,NULL,img/app9.png,75,NULL,NULL,NULL,NULL,NULL
NULL,533,image-keyboard-response,45,583866,0.0-47.0,NULL,img/app10.png,75,NULL,NULL,NULL,NULL,NULL
"[{"page_index":0,"viewing_time":2189}]",2189,instructions,46,586055,0.0-48.0,NULL,NULL,NULL,NULL,NULL,NULL,NULL,NULL
NULL,NULL,sudoku_trial,47,687995,0.0-49.0,NULL,NULL,NULL,101936,boards2x3,c,1,1
NULL,NULL,sudoku_trial,48,767512,0.0-50.0,NULL,NULL,NULL,79516,boards2x3,b,4,1
NULL,NULL,sudoku_trial,49,869328,0.0-51.0,NULL,NULL,NULL,101813,boards2x3,c,3,1
NULL,NULL,sudoku_trial,50,992173,0.0-52.0,NULL,NULL,NULL,NULL,boards2x3,b,2,
NULL,NULL,sudoku_trial,51,1072845,0.0-53.0,NULL,NULL,NULL,80668,boards2x3,b,0,1
NULL,NULL,sudoku_trial,52,1143646,0.0-54.0,NULL,NULL,NULL,70799,boards2x3,a,3,1
"[{"page_index":0,"viewing_time":2297},{"page_index":1,"viewing_time":1057}]",3354,instructions,53,1147000,0.0-55.0,NULL,NULL,NULL,NULL,NULL,NULL,NULL,NULL
NULL,8935,survey-likert,54,1155938,0.0-56.0,"{"Q0":5,"Q1":4,"Q2":5}",NULL,NULL,NULL,NULL,NULL,NULL,NULL
NULL,7890,survey-likert,55,1163829,0.0-57.0,"{"Q0":6,"Q1":1,"Q2":1}",NULL,NULL,NULL,NULL,NULL,NULL,NULL
NULL,10524,survey-likert,56,1174356,0.0-58.0,"{"Q0":6,"Q1":1,"Q2":1,"Q3":0}",NULL,NULL,NULL,NULL,NULL,NULL,NULL
"[{"page_index":0,"viewing_time":1442}]",1443,instructions,57,1175799,0.0-59.0,NULL,NULL,NULL,NULL,NULL,NULL,NULL,NULL
NULL,10585,survey-likert,58,1186387,0.0-60.0,"{"Q0":4,"Q1":5,"Q2":3}",NULL,NULL,NULL,NULL,NULL,NULL,NULL
NULL,12506,survey-likert,59,1198897,0.0-61.0,"{"Q0":7,"Q1":6,"Q2":5}",NULL,NULL,NULL,NULL,NULL,NULL,NULL
"[{"page_index":0,"viewing_time":2472}]",2472,instructions,60,1201369,0.0-62.0,NULL,NULL,NULL,NULL,NULL,NULL,NULL,NULL
NULL,5822,survey-likert,61,1207192,0.0-63.0,"{"Q0":7}",NULL,NULL,NULL,NULL,NULL,NULL,NULL
"[{"page_index":0,"viewing_time":2641},{"page_index":1,"viewing_time":1514}]",4156,instructions,62,1211348,0.0-64.0,NULL,NULL,NULL,NULL,NULL,NULL,NULL,NULL
NULL,1604,image-keyboard-response,63,1212953,0.0-65.0,NULL,img/app11.png,68,NULL,NULL,NULL,NULL,NULL
NULL,345,image-keyboard-response,64,1213298,0.0-66.0,NULL,img/app12.png,68,NULL,NULL,NULL,NULL,NULL
NULL,342,image-keyboard-response,65,1213642,0.0-67.0,NULL,img/app13.png,68,NULL,NULL,NULL,NULL,NULL
NULL,352,image-keyboard-response,66,1213995,0.0-68.0,NULL,img/app14.png,68,NULL,NULL,NULL,NULL,NULL
NULL,358,image-keyboard-response,67,1214353,0.0-69.0,NULL,img/app15.png,68,NULL,NULL,NULL,NULL,NULL
"[{"page_index":0,"viewing_time":1454}]",1455,instructions,68,1215808,0.0-70.0,NULL,NULL,NULL,NULL,NULL,NULL,NULL,NULL
"[{"page_index":0,"viewing_time":14676},{"page_index":1,"viewing_time":1232},{"page_index":2,"viewing_time":932},{"page_index":3,"viewing_time":1122}]",17963,instructions,69,1233774,0.0-71.0,NULL,NULL,NULL,NULL,NULL,NULL,NULL,NULL
NULL,8006,survey-text,70,1241780,0.0-72.0,"{"Q0":"xhysi16@swlaw.edu"}",NULL,NULL,NULL,NULL,NULL,NULL,NULL
"[{"page_index":0,"viewing_time":3667},{"page_index":1,"viewing_time":1549},{"page_index":2,"viewing_time":763},{"page_index":3,"viewing_time":812}]",6791,instructions,0,6792,0.0-0.0,NULL,NULL,NULL,NULL,NULL,NULL,NULL,NULL
NULL,11233,survey-multi-choice,1,18026,0.0-1.0,"{"Q0":"I agree to participate in this research study"}",NULL,NULL,NULL,NULL,NULL,NULL,NULL
"[{"page_index":0,"viewing_time":1196},{"page_index":1,"viewing_time":868},{"page_index":2,"viewing_time":731}]",2795,instructions,2,20821,0.0-2.0,NULL,NULL,NULL,NULL,NULL,NULL,NULL,NULL
NULL,22900,survey-likert,3,43723,0.0-3.0,"{"Q0":2,"Q1":2,"Q2":2}",NULL,NULL,NULL,NULL,NULL,NULL,NULL
NULL,6063,survey-likert,4,49788,0.0-4.0,"{"Q0":2,"Q1":2,"Q2":2}",NULL,NULL,NULL,NULL,NULL,NULL,NULL
NULL,8149,survey-likert,5,57938,0.0-5.0,"{"Q0":2,"Q1":2,"Q2":2}",NULL,NULL,NULL,NULL,NULL,NULL,NULL
NULL,18691,survey-likert,6,76630,0.0-6.0,"{"Q0":2,"Q1":1,"Q2":2}",NULL,NULL,NULL,NULL,NULL,NULL,NULL
NULL,15381,survey-likert,7,92012,0.0-7.0,"{"Q0":1,"Q1":3,"Q2":2}",NULL,NULL,NULL,NULL,NULL,NULL,NULL
NULL,27374,survey-likert,8,119387,0.0-8.0,"{"Q0":2,"Q1":2,"Q2":2}",NULL,NULL,NULL,NULL,NULL,NULL,NULL
"[{"page_index":0,"viewing_time":1221}]",1221,instructions,9,120608,0.0-9.0,NULL,NULL,NULL,NULL,NULL,NULL,NULL,NULL
"[{"page_index":0,"viewing_time":883}]",884,instructions,10,121492,0.0-10.0,NULL,NULL,NULL,NULL,NULL,NULL,NULL,NULL
NULL,10818,survey-likert,11,132310,0.0-11.0,"{"Q0":2,"Q1":1,"Q2":1}",NULL,NULL,NULL,NULL,NULL,NULL,NULL
NULL,23694,survey-likert,12,156006,0.0-12.0,"{"Q0":2,"Q1":3,"Q2":3}",NULL,NULL,NULL,NULL,NULL,NULL,NULL
NULL,21673,survey-multi-choice,13,177680,0.0-13.0,"{"Q0":"Yes, I solved Sudoku once or twice"}",NULL,NULL,NULL,NULL,NULL,NULL,NULL
NULL,4273,survey-multi-choice,14,181955,0.0-15.0,"{"Q0":"Undergraduate degree (e.g., BA)"}",NULL,NULL,NULL,NULL,NULL,NULL,NULL
NULL,10831,survey-text,15,192787,0.0-16.0-0.0,"{"Q0":"Biomedical science"}",NULL,NULL,NULL,NULL,NULL,NULL,NULL
NULL,4019,survey-multi-choice,16,196810,0.0-19.0,"{"Q0":"18 - 25 years of age"}",NULL,NULL,NULL,NULL,NULL,NULL,NULL
NULL,6028,survey-text,17,202838,0.0-20.0,"{"Q0":"20"}",NULL,NULL,NULL,NULL,NULL,NULL,NULL
NULL,38193,survey-multi-choice,18,241034,0.0-21.0,"{"Q0":"White"}",NULL,NULL,NULL,NULL,NULL,NULL,NULL
"[{"page_index":0,"viewing_time":1390},{"page_index":1,"viewing_time":47624},{"page_index":2,"viewing_time":35989},{"page_index":3,"viewing_time":33387},{"page_index":4,"viewing_time":13662},{"page_index":5,"viewing_time":6483}]",138536,instructions,19,379570,0.0-22.0-0.0,NULL,NULL,NULL,NULL,NULL,NULL,NULL,NULL
NULL,3653,html-keyboard-response,20,383224,0.0-22.0-1.0,NULL,"Are you ready to solve a practice Sudoku? <br><br> Yes, I am ready! (Press C) <br><br> Not yet, I would like to read the rules once again, please! (Press R)",67,NULL,NULL,NULL,NULL,NULL
"[{"page_index":0,"viewing_time":4007}]",4007,instructions,21,387232,0.0-23.0,NULL,NULL,NULL,NULL,NULL,NULL,NULL,NULL
NULL,7155,survey-likert,22,394389,0.0-24.0,"{"Q0":3}",NULL,NULL,NULL,NULL,NULL,NULL,NULL
"[{"page_index":0,"viewing_time":27211},{"page_index":1,"viewing_time":6705},{"page_index":0,"viewing_time":1943},{"page_index":1,"viewing_time":908}]",36768,instructions,23,431157,0.0-25.0,NULL,NULL,NULL,NULL,NULL,NULL,NULL,NULL
NULL,7867,image-keyboard-response,24,439025,0.0-26.0,NULL,img/app1.png,68,NULL,NULL,NULL,NULL,NULL
NULL,2317,image-keyboard-response,25,441344,0.0-27.0,NULL,img/app2.png,68,NULL,NULL,NULL,NULL,NULL
NULL,4041,image-keyboard-response,26,445386,0.0-28.0,NULL,img/app3.png,68,NULL,NULL,NULL,NULL,NULL
NULL,504,image-keyboard-response,27,445891,0.0-29.0,NULL,img/app4.png,68,NULL,NULL,NULL,NULL,NULL
NULL,360,image-keyboard-response,28,446251,0.0-30.0,NULL,img/app5.png,68,NULL,NULL,NULL,NULL,NULL
"[{"page_index":0,"viewing_time":3383},{"page_index":1,"viewing_time":5553},{"page_index":2,"viewing_time":964}]",9901,instructions,29,456154,0.0-31.0,NULL,NULL,NULL,NULL,NULL,NULL,NULL,NULL
NULL,NULL,sudoku_trial,30,577952,0.0-32.0,NULL,NULL,NULL,NULL,boards2x3,a,1,
"[{"page_index":0,"viewing_time":2609},{"page_index":1,"viewing_time":2233}]",4842,instructions,31,582794,0.0-33.0,NULL,NULL,NULL,NULL,NULL,NULL,NULL,NULL
NULL,7305,survey-likert,32,590101,0.0-34.0,"{"Q0":4,"Q1":4,"Q2":4}",NULL,NULL,NULL,NULL,NULL,NULL,NULL
NULL,14301,survey-likert,33,604404,0.0-35.0,"{"Q0":4,"Q1":2,"Q2":4}",NULL,NULL,NULL,NULL,NULL,NULL,NULL
NULL,9707,survey-likert,34,614112,0.0-36.0,"{"Q0":4,"Q1":4,"Q2":2,"Q3":3}",NULL,NULL,NULL,NULL,NULL,NULL,NULL
"[{"page_index":0,"viewing_time":1115}]",1116,instructions,35,615228,0.0-37.0,NULL,NULL,NULL,NULL,NULL,NULL,NULL,NULL
NULL,10753,survey-likert,36,625981,0.0-38.0,"{"Q0":3,"Q1":4,"Q2":6}",NULL,NULL,NULL,NULL,NULL,NULL,NULL
NULL,10913,survey-likert,37,636895,0.0-39.0,"{"Q0":3,"Q1":2,"Q2":3}",NULL,NULL,NULL,NULL,NULL,NULL,NULL
"[{"page_index":0,"viewing_time":923}]",924,instructions,38,637819,0.0-40.0,NULL,NULL,NULL,NULL,NULL,NULL,NULL,NULL
NULL,5612,survey-likert,39,643431,0.0-41.0,"{"Q0":4}",NULL,NULL,NULL,NULL,NULL,NULL,NULL
"[{"page_index":0,"viewing_time":1108},{"page_index":1,"viewing_time":1456}]",2565,instructions,40,645996,0.0-42.0,NULL,NULL,NULL,NULL,NULL,NULL,NULL,NULL
NULL,1449,image-keyboard-response,41,647445,0.0-43.0,NULL,img/app6.png,68,NULL,NULL,NULL,NULL,NULL
NULL,1376,image-keyboard-response,42,648823,0.0-44.0,NULL,img/app7.png,68,NULL,NULL,NULL,NULL,NULL
NULL,458,image-keyboard-response,43,649282,0.0-45.0,NULL,img/app8.png,68,NULL,NULL,NULL,NULL,NULL
NULL,595,image-keyboard-response,44,649877,0.0-46.0,NULL,img/app9.png,68,NULL,NULL,NULL,NULL,NULL
NULL,2922,image-keyboard-response,45,652800,0.0-47.0,NULL,img/app10.png,68,NULL,NULL,NULL,NULL,NULL
"[{"page_index":0,"viewing_time":1221}]",1221,instructions,46,654021,0.0-48.0,NULL,NULL,NULL,NULL,NULL,NULL,NULL,NULL
NULL,NULL,sudoku_trial,47,731317,0.0-49.0,NULL,NULL,NULL,77295,boards2x3,c,3,1
NULL,NULL,sudoku_trial,48,807123,0.0-50.0,NULL,NULL,NULL,75805,boards2x3,c,1,1
NULL,NULL,sudoku_trial,49,868387,0.0-51.0,NULL,NULL,NULL,61262,boards2x3,b,0,1
NULL,NULL,sudoku_trial,50,939149,0.0-52.0,NULL,NULL,NULL,70761,boards2x3,b,4,1
NULL,NULL,sudoku_trial,51,1015134,0.0-53.0,NULL,NULL,NULL,75984,boards2x3,a,3,1
NULL,NULL,sudoku_trial,52,1134729,0.0-54.0,NULL,NULL,NULL,119594,boards2x3,b,2,1
"[{"page_index":0,"viewing_time":1243},{"page_index":1,"viewing_time":1068}]",2312,instructions,53,1137041,0.0-55.0,NULL,NULL,NULL,NULL,NULL,NULL,NULL,NULL
NULL,3895,survey-likert,54,1140936,0.0-56.0,"{"Q0":5,"Q1":5,"Q2":5}",NULL,NULL,NULL,NULL,NULL,NULL,NULL
NULL,5338,survey-likert,55,1146276,0.0-57.0,"{"Q0":6,"Q1":1,"Q2":2}",NULL,NULL,NULL,NULL,NULL,NULL,NULL
NULL,6785,survey-likert,56,1153062,0.0-58.0,"{"Q0":6,"Q1":6,"Q2":2,"Q3":3}",NULL,NULL,NULL,NULL,NULL,NULL,NULL
"[{"page_index":0,"viewing_time":897}]",897,instructions,57,1153961,0.0-59.0,NULL,NULL,NULL,NULL,NULL,NULL,NULL,NULL
NULL,7042,survey-likert,58,1161004,0.0-60.0,"{"Q0":3,"Q1":5,"Q2":5}",NULL,NULL,NULL,NULL,NULL,NULL,NULL
NULL,7596,survey-likert,59,1168601,0.0-61.0,"{"Q0":5,"Q1":3,"Q2":5}",NULL,NULL,NULL,NULL,NULL,NULL,NULL
"[{"page_index":0,"viewing_time":1051}]",1051,instructions,60,1169652,0.0-62.0,NULL,NULL,NULL,NULL,NULL,NULL,NULL,NULL
NULL,6735,survey-likert,61,1176390,0.0-63.0,"{"Q0":6}",NULL,NULL,NULL,NULL,NULL,NULL,NULL
"[{"page_index":0,"viewing_time":979},{"page_index":1,"viewing_time":674}]",1653,instructions,62,1178043,0.0-64.0,NULL,NULL,NULL,NULL,NULL,NULL,NULL,NULL
NULL,755,image-keyboard-response,63,1178800,0.0-65.0,NULL,img/app11.png,68,NULL,NULL,NULL,NULL,NULL
NULL,375,image-keyboard-response,64,1179176,0.0-66.0,NULL,img/app12.png,68,NULL,NULL,NULL,NULL,NULL
NULL,415,image-keyboard-response,65,1179591,0.0-67.0,NULL,img/app13.png,68,NULL,NULL,NULL,NULL,NULL
NULL,389,image-keyboard-response,66,1179981,0.0-68.0,NULL,img/app14.png,68,NULL,NULL,NULL,NULL,NULL
NULL,366,image-keyboard-response,67,1180347,0.0-69.0,NULL,img/app15.png,68,NULL,NULL,NULL,NULL,NULL
"[{"page_index":0,"viewing_time":705}]",705,instructions,68,1181053,0.0-70.0,NULL,NULL,NULL,NULL,NULL,NULL,NULL,NULL
"[{"page_index":0,"viewing_time":1644},{"page_index":1,"viewing_time":715},{"page_index":2,"viewing_time":441},{"page_index":3,"viewing_time":602}]",3403,instructions,69,1184458,0.0-71.0,NULL,NULL,NULL,NULL,NULL,NULL,NULL,NULL
NULL,7175,survey-text,70,1191634,0.0-72.0,"{"Q0":"Anna.pantus@gmail.com "}",NULL,NULL,NULL,NULL,NULL,NULL,NULL
"[{"page_index":0,"viewing_time":9067},{"page_index":1,"viewing_time":1074},{"page_index":0,"viewing_time":23336},{"page_index":1,"viewing_time":23681},{"page_index":2,"viewing_time":6554},{"page_index":3,"viewing_time":6959}]",70672,instructions,0,70673,0.0-0.0,NULL,NULL,NULL,NULL,NULL,NULL,NULL,NULL
NULL,15660,survey-multi-choice,1,86338,0.0-1.0,"{"Q0":"I agree to participate in this research study"}",NULL,NULL,NULL,NULL,NULL,NULL,NULL
"[{"page_index":0,"viewing_time":13207},{"page_index":1,"viewing_time":2553},{"page_index":2,"viewing_time":6695}]",22455,instructions,2,108793,0.0-2.0,NULL,NULL,NULL,NULL,NULL,NULL,NULL,NULL
NULL,16798,survey-likert,3,125595,0.0-3.0,"{"Q0":3,"Q1":2,"Q2":2}",NULL,NULL,NULL,NULL,NULL,NULL,NULL
NULL,13175,survey-likert,4,138771,0.0-4.0,"{"Q0":2,"Q1":1,"Q2":3}",NULL,NULL,NULL,NULL,NULL,NULL,NULL
NULL,13225,survey-likert,5,151996,0.0-5.0,"{"Q0":1,"Q1":2,"Q2":3}",NULL,NULL,NULL,NULL,NULL,NULL,NULL
NULL,17159,survey-likert,6,169155,0.0-6.0,"{"Q0":3,"Q1":2,"Q2":2}",NULL,NULL,NULL,NULL,NULL,NULL,NULL
NULL,23772,survey-likert,7,192929,0.0-7.0,"{"Q0":0,"Q1":2,"Q2":2}",NULL,NULL,NULL,NULL,NULL,NULL,NULL
NULL,14969,survey-likert,8,207899,0.0-8.0,"{"Q0":3,"Q1":2,"Q2":0}",NULL,NULL,NULL,NULL,NULL,NULL,NULL
"[{"page_index":0,"viewing_time":4858}]",4858,instructions,9,212757,0.0-9.0,NULL,NULL,NULL,NULL,NULL,NULL,NULL,NULL
"[{"page_index":0,"viewing_time":4926}]",4927,instructions,10,217684,0.0-10.0,NULL,NULL,NULL,NULL,NULL,NULL,NULL,NULL
NULL,11018,survey-likert,11,228703,0.0-11.0,"{"Q0":4,"Q1":3,"Q2":3}",NULL,NULL,NULL,NULL,NULL,NULL,NULL
NULL,9090,survey-likert,12,237793,0.0-12.0,"{"Q0":4,"Q1":4,"Q2":3}",NULL,NULL,NULL,NULL,NULL,NULL,NULL
NULL,4348,survey-multi-choice,13,242144,0.0-13.0,"{"Q0":"Yes, I solve Sudoku occasionally"}",NULL,NULL,NULL,NULL,NULL,NULL,NULL
NULL,3708,survey-multi-choice,14,245853,0.0-14.0-0.0,"{"Q0":"Average"}",NULL,NULL,NULL,NULL,NULL,NULL,NULL
NULL,5839,survey-multi-choice,15,251695,0.0-15.0,"{"Q0":"High school (four years or more)"}",NULL,NULL,NULL,NULL,NULL,NULL,NULL
NULL,3240,survey-multi-choice,16,254936,0.0-17.0-0.0,"{"Q0":"Yes, I am a university student now"}",NULL,NULL,NULL,NULL,NULL,NULL,NULL
NULL,8492,survey-text,17,263429,0.0-18.0-0.0,"{"Q0":"Business"}",NULL,NULL,NULL,NULL,NULL,NULL,NULL
NULL,2471,survey-multi-choice,18,265902,0.0-19.0,"{"Q0":"18 - 25 years of age"}",NULL,NULL,NULL,NULL,NULL,NULL,NULL
NULL,4704,survey-text,19,270606,0.0-20.0,"{"Q0":"Male"}",NULL,NULL,NULL,NULL,NULL,NULL,NULL
NULL,6684,survey-multi-choice,20,277293,0.0-21.0,"{"Q0":"White"}",NULL,NULL,NULL,NULL,NULL,NULL,NULL
"[{"page_index":0,"viewing_time":10339},{"page_index":1,"viewing_time":22600},{"page_index":2,"viewing_time":7479},{"page_index":3,"viewing_time":5569},{"page_index":4,"viewing_time":856},{"page_index":5,"viewing_time":1943}]",48786,instructions,21,326079,0.0-22.0-0.0,NULL,NULL,NULL,NULL,NULL,NULL,NULL,NULL
NULL,2991,html-keyboard-response,22,329072,0.0-22.0-1.0,NULL,"Are you ready to solve a practice Sudoku? <br><br> Yes, I am ready! (Press C) <br><br> Not yet, I would like to read the rules once again, please! (Press R)",67,NULL,NULL,NULL,NULL,NULL
"[{"page_index":0,"viewing_time":2853}]",2853,instructions,23,331925,0.0-23.0,NULL,NULL,NULL,NULL,NULL,NULL,NULL,NULL
NULL,6583,survey-likert,24,338509,0.0-24.0,"{"Q0":5}",NULL,NULL,NULL,NULL,NULL,NULL,NULL
"[{"page_index":0,"viewing_time":22978},{"page_index":1,"viewing_time":4361}]",27340,instructions,25,365851,0.0-25.0,NULL,NULL,NULL,NULL,NULL,NULL,NULL,NULL
NULL,2660,image-keyboard-response,26,368512,0.0-26.0,NULL,img/app1.png,68,NULL,NULL,NULL,NULL,NULL
NULL,8376,image-keyboard-response,27,376888,0.0-27.0,NULL,img/app2.png,68,NULL,NULL,NULL,NULL,NULL
NULL,5021,image-keyboard-response,28,381910,0.0-28.0,NULL,img/app3.png,68,NULL,NULL,NULL,NULL,NULL
NULL,8356,image-keyboard-response,29,390268,0.0-29.0,NULL,img/app4.png,68,NULL,NULL,NULL,NULL,NULL
NULL,3636,image-keyboard-response,30,393904,0.0-30.0,NULL,img/app5.png,68,NULL,NULL,NULL,NULL,NULL
"[{"page_index":0,"viewing_time":2974},{"page_index":1,"viewing_time":8258},{"page_index":2,"viewing_time":37826}]",49059,instructions,31,442963,0.0-31.0,NULL,NULL,NULL,NULL,NULL,NULL,NULL,NULL
NULL,NULL,sudoku_trial,32,492730,0.0-32.0,NULL,NULL,NULL,49766,boards2x3,a,1,1
"[{"page_index":0,"viewing_time":2076},{"page_index":1,"viewing_time":4405}]",6481,instructions,33,499211,0.0-33.0,NULL,NULL,NULL,NULL,NULL,NULL,NULL,NULL
NULL,10224,survey-likert,34,509437,0.0-34.0,"{"Q0":0,"Q1":7,"Q2":8}",NULL,NULL,NULL,NULL,NULL,NULL,NULL
NULL,10706,survey-likert,35,520147,0.0-35.0,"{"Q0":6,"Q1":0,"Q2":6}",NULL,NULL,NULL,NULL,NULL,NULL,NULL
NULL,13153,survey-likert,36,533302,0.0-36.0,"{"Q0":8,"Q1":0,"Q2":1,"Q3":0}",NULL,NULL,NULL,NULL,NULL,NULL,NULL
"[{"page_index":0,"viewing_time":35258}]",35258,instructions,37,568560,0.0-37.0,NULL,NULL,NULL,NULL,NULL,NULL,NULL,NULL
NULL,49346,survey-likert,38,617908,0.0-38.0,"{"Q0":4,"Q1":8,"Q2":0}",NULL,NULL,NULL,NULL,NULL,NULL,NULL
NULL,7311,survey-likert,39,625221,0.0-39.0,"{"Q0":5,"Q1":8,"Q2":7}",NULL,NULL,NULL,NULL,NULL,NULL,NULL
"[{"page_index":0,"viewing_time":2559}]",2560,instructions,40,627781,0.0-40.0,NULL,NULL,NULL,NULL,NULL,NULL,NULL,NULL
NULL,3098,survey-likert,41,630880,0.0-41.0,"{"Q0":7}",NULL,NULL,NULL,NULL,NULL,NULL,NULL
"[{"page_index":0,"viewing_time":5582},{"page_index":1,"viewing_time":5840}]",11422,instructions,42,642302,0.0-42.0,NULL,NULL,NULL,NULL,NULL,NULL,NULL,NULL
NULL,1974,image-keyboard-response,43,644279,0.0-43.0,NULL,img/app6.png,68,NULL,NULL,NULL,NULL,NULL
NULL,1475,image-keyboard-response,44,645754,0.0-44.0,NULL,img/app7.png,68,NULL,NULL,NULL,NULL,NULL
NULL,2698,image-keyboard-response,45,648452,0.0-45.0,NULL,img/app8.png,68,NULL,NULL,NULL,NULL,NULL
NULL,2507,image-keyboard-response,46,650960,0.0-46.0,NULL,img/app9.png,68,NULL,NULL,NULL,NULL,NULL
NULL,2017,image-keyboard-response,47,652979,0.0-47.0,NULL,img/app10.png,68,NULL,NULL,NULL,NULL,NULL
"[{"page_index":0,"viewing_time":2476}]",2476,instructions,48,655456,0.0-48.0,NULL,NULL,NULL,NULL,NULL,NULL,NULL,NULL
NULL,NULL,sudoku_trial,49,702693,0.0-49.0,NULL,NULL,NULL,47236,boards2x3,c,3,1
NULL,NULL,sudoku_trial,50,753144,0.0-50.0,NULL,NULL,NULL,50450,boards2x3,a,3,1
NULL,NULL,sudoku_trial,51,794458,0.0-51.0,NULL,NULL,NULL,41313,boards2x3,b,4,1
NULL,NULL,sudoku_trial,52,829862,0.0-52.0,NULL,NULL,NULL,35402,boards2x3,c,1,1
NULL,NULL,sudoku_trial,53,856767,0.0-53.0,NULL,NULL,NULL,26905,boards2x3,b,2,1
NULL,NULL,sudoku_trial,54,898132,0.0-54.0,NULL,NULL,NULL,41364,boards2x3,b,0,1
"[{"page_index":0,"viewing_time":12809},{"page_index":1,"viewing_time":1975}]",14785,instructions,55,912917,0.0-55.0,NULL,NULL,NULL,NULL,NULL,NULL,NULL,NULL
NULL,11422,survey-likert,56,924341,0.0-56.0,"{"Q0":0,"Q1":3,"Q2":8}",NULL,NULL,NULL,NULL,NULL,NULL,NULL
NULL,6040,survey-likert,57,930382,0.0-57.0,"{"Q0":8,"Q1":0,"Q2":0}",NULL,NULL,NULL,NULL,NULL,NULL,NULL
NULL,16803,survey-likert,58,947186,0.0-58.0,"{"Q0":5,"Q1":3,"Q2":2,"Q3":3}",NULL,NULL,NULL,NULL,NULL,NULL,NULL
"[{"page_index":0,"viewing_time":5234}]",5234,instructions,59,952420,0.0-59.0,NULL,NULL,NULL,NULL,NULL,NULL,NULL,NULL
NULL,6728,survey-likert,60,959151,0.0-60.0,"{"Q0":8,"Q1":8,"Q2":0}",NULL,NULL,NULL,NULL,NULL,NULL,NULL
NULL,8414,survey-likert,61,967566,0.0-61.0,"{"Q0":8,"Q1":8,"Q2":7}",NULL,NULL,NULL,NULL,NULL,NULL,NULL
"[{"page_index":0,"viewing_time":2826}]",2826,instructions,62,970392,0.0-62.0,NULL,NULL,NULL,NULL,NULL,NULL,NULL,NULL
NULL,2795,survey-likert,63,973188,0.0-63.0,"{"Q0":8}",NULL,NULL,NULL,NULL,NULL,NULL,NULL
"[{"page_index":0,"viewing_time":3114},{"page_index":1,"viewing_time":1932}]",5047,instructions,64,978235,0.0-64.0,NULL,NULL,NULL,NULL,NULL,NULL,NULL,NULL
NULL,2022,image-keyboard-response,65,980257,0.0-65.0,NULL,img/app11.png,68,NULL,NULL,NULL,NULL,NULL
NULL,1714,image-keyboard-response,66,981972,0.0-66.0,NULL,img/app12.png,68,NULL,NULL,NULL,NULL,NULL
NULL,1884,image-keyboard-response,67,983856,0.0-67.0,NULL,img/app13.png,68,NULL,NULL,NULL,NULL,NULL
NULL,2050,image-keyboard-response,68,985908,0.0-68.0,NULL,img/app14.png,68,NULL,NULL,NULL,NULL,NULL
NULL,2476,image-keyboard-response,69,988385,0.0-69.0,NULL,img/app15.png,68,NULL,NULL,NULL,NULL,NULL
"[{"page_index":0,"viewing_time":1726}]",1727,instructions,70,990112,0.0-70.0,NULL,NULL,NULL,NULL,NULL,NULL,NULL,NULL
"[{"page_index":0,"viewing_time":22739},{"page_index":1,"viewing_time":6819},{"page_index":2,"viewing_time":3431},{"page_index":3,"viewing_time":1705}]",34695,instructions,71,1024807,0.0-71.0,NULL,NULL,NULL,NULL,NULL,NULL,NULL,NULL
NULL,10339,survey-text,72,1035146,0.0-72.0,"{"Q0":""}",NULL,NULL,NULL,NULL,NULL,NULL,NULL
