view_history,rt,trial_type,trial_index,time_elapsed,internal_node_id,responses,stimulus,key_press,success_time,board_size,board_set,board_no,success
"[{"page_index":0,"viewing_time":8078},{"page_index":1,"viewing_time":2672},{"page_index":2,"viewing_time":1160},{"page_index":3,"viewing_time":1008}]",12920,instructions,0,12925,0.0-0.0,NULL,NULL,NULL,NULL,NULL,NULL,NULL,NULL
NULL,3109,survey-multi-choice,1,16045,0.0-1.0,"{"Q0":"I agree to participate in this research study"}",NULL,NULL,NULL,NULL,NULL,NULL,NULL
"[{"page_index":0,"viewing_time":15170},{"page_index":1,"viewing_time":4616},{"page_index":2,"viewing_time":6447}]",26234,instructions,2,42281,0.0-2.0,NULL,NULL,NULL,NULL,NULL,NULL,NULL,NULL
NULL,8715,survey-likert,3,51001,0.0-3.0,"{"Q0":3,"Q1":2,"Q2":2}",NULL,NULL,NULL,NULL,NULL,NULL,NULL
NULL,10631,survey-likert,4,61639,0.0-4.0,"{"Q0":3,"Q1":2,"Q2":3}",NULL,NULL,NULL,NULL,NULL,NULL,NULL
NULL,7424,survey-likert,5,69069,0.0-5.0,"{"Q0":3,"Q1":2,"Q2":2}",NULL,NULL,NULL,NULL,NULL,NULL,NULL
NULL,10252,survey-likert,6,79327,0.0-6.0,"{"Q0":2,"Q1":2,"Q2":1}",NULL,NULL,NULL,NULL,NULL,NULL,NULL
NULL,10771,survey-likert,7,90101,0.0-7.0,"{"Q0":1,"Q1":2,"Q2":1}",NULL,NULL,NULL,NULL,NULL,NULL,NULL
NULL,18675,survey-likert,8,108781,0.0-8.0,"{"Q0":2,"Q1":2,"Q2":1}",NULL,NULL,NULL,NULL,NULL,NULL,NULL
"[{"page_index":0,"viewing_time":5116}]",5117,instructions,9,113899,0.0-9.0,NULL,NULL,NULL,NULL,NULL,NULL,NULL,NULL
"[{"page_index":0,"viewing_time":2309}]",2309,instructions,10,116210,0.0-10.0,NULL,NULL,NULL,NULL,NULL,NULL,NULL,NULL
NULL,14463,survey-likert,11,130679,0.0-11.0,"{"Q0":2,"Q1":3,"Q2":2}",NULL,NULL,NULL,NULL,NULL,NULL,NULL
NULL,10402,survey-likert,12,141086,0.0-12.0,"{"Q0":1,"Q1":3,"Q2":1}",NULL,NULL,NULL,NULL,NULL,NULL,NULL
NULL,5885,survey-multi-choice,13,146974,0.0-13.0,"{"Q0":"Yes, I solved Sudoku once or twice"}",NULL,NULL,NULL,NULL,NULL,NULL,NULL
NULL,4132,survey-multi-choice,14,151117,0.0-15.0,"{"Q0":"Undergraduate degree (e.g., BA)"}",NULL,NULL,NULL,NULL,NULL,NULL,NULL
NULL,18985,survey-text,15,170106,0.0-16.0-0.0,"{"Q0":"Computer Science"}",NULL,NULL,NULL,NULL,NULL,NULL,NULL
NULL,2356,survey-multi-choice,16,172468,0.0-19.0,"{"Q0":"18 - 25 years of age"}",NULL,NULL,NULL,NULL,NULL,NULL,NULL
NULL,2459,survey-text,17,174930,0.0-20.0,"{"Q0":"M"}",NULL,NULL,NULL,NULL,NULL,NULL,NULL
NULL,3901,survey-multi-choice,18,178838,0.0-21.0,"{"Q0":"Asian/ Pacific Islander"}",NULL,NULL,NULL,NULL,NULL,NULL,NULL
"[{"page_index":0,"viewing_time":6986},{"page_index":1,"viewing_time":12008},{"page_index":2,"viewing_time":3360},{"page_index":3,"viewing_time":3000},{"page_index":4,"viewing_time":1296},{"page_index":5,"viewing_time":848}]",27499,instructions,19,206339,0.0-22.0-0.0,NULL,NULL,NULL,NULL,NULL,NULL,NULL,NULL
NULL,2326,html-keyboard-response,20,208669,0.0-22.0-1.0,NULL,"Are you ready to solve a practice Sudoku? <br><br> Yes, I am ready! (Press C) <br><br> Not yet, I would like to read the rules once again, please! (Press R)",67,NULL,NULL,NULL,NULL,NULL
"[{"page_index":0,"viewing_time":3585}]",3585,instructions,21,212258,0.0-23.0,NULL,NULL,NULL,NULL,NULL,NULL,NULL,NULL
NULL,5696,survey-likert,22,217959,0.0-24.0,"{"Q0":2}",NULL,NULL,NULL,NULL,NULL,NULL,NULL
"[{"page_index":0,"viewing_time":7402},{"page_index":1,"viewing_time":5263}]",12666,instructions,23,230626,0.0-25.0,NULL,NULL,NULL,NULL,NULL,NULL,NULL,NULL
NULL,1895,image-keyboard-response,24,232527,0.0-26.0,NULL,img/app1.png,68,NULL,NULL,NULL,NULL,NULL
NULL,1244,image-keyboard-response,25,233773,0.0-27.0,NULL,img/app2.png,68,NULL,NULL,NULL,NULL,NULL
NULL,2180,image-keyboard-response,26,235957,0.0-28.0,NULL,img/app3.png,68,NULL,NULL,NULL,NULL,NULL
NULL,3460,image-keyboard-response,27,239419,0.0-29.0,NULL,img/app4.png,75,NULL,NULL,NULL,NULL,NULL
NULL,963,image-keyboard-response,28,240384,0.0-30.0,NULL,img/app5.png,75,NULL,NULL,NULL,NULL,NULL
"[{"page_index":0,"viewing_time":1621},{"page_index":1,"viewing_time":5112},{"page_index":2,"viewing_time":7616}]",14349,instructions,29,254738,0.0-31.0,NULL,NULL,NULL,NULL,NULL,NULL,NULL,NULL
NULL,NULL,sudoku_trial,30,315218,0.0-32.0,NULL,NULL,NULL,60470,boards2x3,a,1,1
"[{"page_index":0,"viewing_time":2331},{"page_index":1,"viewing_time":2608}]",4939,instructions,31,320162,0.0-33.0,NULL,NULL,NULL,NULL,NULL,NULL,NULL,NULL
NULL,13345,survey-likert,32,333512,0.0-34.0,"{"Q0":1,"Q1":4,"Q2":0}",NULL,NULL,NULL,NULL,NULL,NULL,NULL
NULL,6106,survey-likert,33,339622,0.0-35.0,"{"Q0":6,"Q1":0,"Q2":0}",NULL,NULL,NULL,NULL,NULL,NULL,NULL
NULL,10445,survey-likert,34,350072,0.0-36.0,"{"Q0":6,"Q1":3,"Q2":0,"Q3":0}",NULL,NULL,NULL,NULL,NULL,NULL,NULL
"[{"page_index":0,"viewing_time":6896}]",6897,instructions,35,356970,0.0-37.0,NULL,NULL,NULL,NULL,NULL,NULL,NULL,NULL
NULL,15078,survey-likert,36,372055,0.0-38.0,"{"Q0":3,"Q1":0,"Q2":4}",NULL,NULL,NULL,NULL,NULL,NULL,NULL
NULL,11013,survey-likert,37,383076,0.0-39.0,"{"Q0":5,"Q1":6,"Q2":6}",NULL,NULL,NULL,NULL,NULL,NULL,NULL
"[{"page_index":0,"viewing_time":15387}]",15388,instructions,38,398465,0.0-40.0,NULL,NULL,NULL,NULL,NULL,NULL,NULL,NULL
NULL,12495,survey-likert,39,410968,0.0-41.0,"{"Q0":4}",NULL,NULL,NULL,NULL,NULL,NULL,NULL
"[{"page_index":0,"viewing_time":1564},{"page_index":1,"viewing_time":1322}]",2886,instructions,40,413857,0.0-42.0,NULL,NULL,NULL,NULL,NULL,NULL,NULL,NULL
NULL,3068,image-keyboard-response,41,416931,0.0-43.0,NULL,img/app6.png,68,NULL,NULL,NULL,NULL,NULL
NULL,968,image-keyboard-response,42,417903,0.0-44.0,NULL,img/app7.png,68,NULL,NULL,NULL,NULL,NULL
NULL,1511,image-keyboard-response,43,419417,0.0-45.0,NULL,img/app8.png,68,NULL,NULL,NULL,NULL,NULL
NULL,1250,image-keyboard-response,44,420669,0.0-46.0,NULL,img/app9.png,68,NULL,NULL,NULL,NULL,NULL
NULL,1868,image-keyboard-response,45,422541,0.0-47.0,NULL,img/app10.png,75,NULL,NULL,NULL,NULL,NULL
"[{"page_index":0,"viewing_time":1483}]",1484,instructions,46,424026,0.0-48.0,NULL,NULL,NULL,NULL,NULL,NULL,NULL,NULL
NULL,NULL,sudoku_trial,47,487361,0.0-49.0,NULL,NULL,NULL,63330,boards2x3,c,3,1
NULL,NULL,sudoku_trial,48,541181,0.0-50.0,NULL,NULL,NULL,53816,boards2x3,b,0,1
NULL,NULL,sudoku_trial,49,582489,0.0-51.0,NULL,NULL,NULL,41303,boards2x3,c,1,1
NULL,NULL,sudoku_trial,50,627163,0.0-52.0,NULL,NULL,NULL,44667,boards2x3,b,4,1
NULL,NULL,sudoku_trial,51,674144,0.0-53.0,NULL,NULL,NULL,46977,boards2x3,b,2,1
NULL,NULL,sudoku_trial,52,731318,0.0-54.0,NULL,NULL,NULL,57172,boards2x3,a,3,1
"[{"page_index":0,"viewing_time":3115},{"page_index":1,"viewing_time":968}]",4084,instructions,53,735402,0.0-55.0,NULL,NULL,NULL,NULL,NULL,NULL,NULL,NULL
NULL,5817,survey-likert,54,741224,0.0-56.0,"{"Q0":6,"Q1":1,"Q2":0}",NULL,NULL,NULL,NULL,NULL,NULL,NULL
NULL,7666,survey-likert,55,748895,0.0-57.0,"{"Q0":6,"Q1":0,"Q2":0}",NULL,NULL,NULL,NULL,NULL,NULL,NULL
NULL,10444,survey-likert,56,759344,0.0-58.0,"{"Q0":6,"Q1":3,"Q2":1,"Q3":0}",NULL,NULL,NULL,NULL,NULL,NULL,NULL
"[{"page_index":0,"viewing_time":4205}]",4206,instructions,57,763554,0.0-59.0,NULL,NULL,NULL,NULL,NULL,NULL,NULL,NULL
NULL,7637,survey-likert,58,771195,0.0-60.0,"{"Q0":0,"Q1":6,"Q2":4}",NULL,NULL,NULL,NULL,NULL,NULL,NULL
NULL,7305,survey-likert,59,778504,0.0-61.0,"{"Q0":6,"Q1":6,"Q2":5}",NULL,NULL,NULL,NULL,NULL,NULL,NULL
"[{"page_index":0,"viewing_time":3312}]",3313,instructions,60,781818,0.0-62.0,NULL,NULL,NULL,NULL,NULL,NULL,NULL,NULL
NULL,3192,survey-likert,61,785014,0.0-63.0,"{"Q0":5}",NULL,NULL,NULL,NULL,NULL,NULL,NULL
"[{"page_index":0,"viewing_time":1027},{"page_index":1,"viewing_time":1656}]",2684,instructions,62,787698,0.0-64.0,NULL,NULL,NULL,NULL,NULL,NULL,NULL,NULL
NULL,1671,image-keyboard-response,63,789371,0.0-65.0,NULL,img/app11.png,68,NULL,NULL,NULL,NULL,NULL
NULL,1111,image-keyboard-response,64,790484,0.0-66.0,NULL,img/app12.png,68,NULL,NULL,NULL,NULL,NULL
NULL,636,image-keyboard-response,65,791121,0.0-67.0,NULL,img/app13.png,68,NULL,NULL,NULL,NULL,NULL
NULL,849,image-keyboard-response,66,791973,0.0-68.0,NULL,img/app14.png,68,NULL,NULL,NULL,NULL,NULL
NULL,556,image-keyboard-response,67,792531,0.0-69.0,NULL,img/app15.png,68,NULL,NULL,NULL,NULL,NULL
"[{"page_index":0,"viewing_time":1286}]",1286,instructions,68,793817,0.0-70.0,NULL,NULL,NULL,NULL,NULL,NULL,NULL,NULL
"[{"page_index":0,"viewing_time":7529},{"page_index":1,"viewing_time":11615},{"page_index":2,"viewing_time":2440},{"page_index":3,"viewing_time":2864}]",24448,instructions,69,818265,0.0-71.0,NULL,NULL,NULL,NULL,NULL,NULL,NULL,NULL
NULL,7230,survey-text,70,825498,0.0-72.0,"{"Q0":"s.bien@jacobs-university.de"}",NULL,NULL,NULL,NULL,NULL,NULL,NULL
"[{"page_index":0,"viewing_time":1693},{"page_index":1,"viewing_time":1225},{"page_index":2,"viewing_time":949},{"page_index":3,"viewing_time":920}]",4787,instructions,0,4788,0.0-0.0,NULL,NULL,NULL,NULL,NULL,NULL,NULL,NULL
NULL,3775,survey-multi-choice,1,8570,0.0-1.0,"{"Q0":"I agree to participate in this research study"}",NULL,NULL,NULL,NULL,NULL,NULL,NULL
"[{"page_index":0,"viewing_time":1171},{"page_index":1,"viewing_time":1167},{"page_index":2,"viewing_time":652}]",2990,instructions,2,11560,0.0-2.0,NULL,NULL,NULL,NULL,NULL,NULL,NULL,NULL
NULL,27995,survey-likert,3,39557,0.0-3.0,"{"Q0":3,"Q1":2,"Q2":3}",NULL,NULL,NULL,NULL,NULL,NULL,NULL
NULL,20968,survey-likert,4,60526,0.0-4.0,"{"Q0":3,"Q1":3,"Q2":3}",NULL,NULL,NULL,NULL,NULL,NULL,NULL
NULL,34534,survey-likert,5,95061,0.0-5.0,"{"Q0":3,"Q1":3,"Q2":3}",NULL,NULL,NULL,NULL,NULL,NULL,NULL
NULL,32706,survey-likert,6,127767,0.0-6.0,"{"Q0":3,"Q1":2,"Q2":0}",NULL,NULL,NULL,NULL,NULL,NULL,NULL
NULL,14433,survey-likert,7,142202,0.0-7.0,"{"Q0":0,"Q1":3,"Q2":0}",NULL,NULL,NULL,NULL,NULL,NULL,NULL
NULL,40194,survey-likert,8,182396,0.0-8.0,"{"Q0":3,"Q1":2,"Q2":0}",NULL,NULL,NULL,NULL,NULL,NULL,NULL
"[{"page_index":0,"viewing_time":1552}]",1553,instructions,9,183949,0.0-9.0,NULL,NULL,NULL,NULL,NULL,NULL,NULL,NULL
"[{"page_index":0,"viewing_time":13210}]",13210,instructions,10,197159,0.0-10.0,NULL,NULL,NULL,NULL,NULL,NULL,NULL,NULL
NULL,24427,survey-likert,11,221589,0.0-11.0,"{"Q0":3,"Q1":3,"Q2":2}",NULL,NULL,NULL,NULL,NULL,NULL,NULL
NULL,32440,survey-likert,12,254029,0.0-12.0,"{"Q0":1,"Q1":2,"Q2":0}",NULL,NULL,NULL,NULL,NULL,NULL,NULL
NULL,8381,survey-multi-choice,13,262412,0.0-13.0,"{"Q0":"No, I have never solved Sudoku puzzles before"}",NULL,NULL,NULL,NULL,NULL,NULL,NULL
NULL,11594,survey-multi-choice,14,274007,0.0-15.0,"{"Q0":"Undergraduate degree (e.g., BA)"}",NULL,NULL,NULL,NULL,NULL,NULL,NULL
NULL,15798,survey-text,15,289806,0.0-16.0-0.0,"{"Q0":"Computer Science "}",NULL,NULL,NULL,NULL,NULL,NULL,NULL
NULL,4383,survey-multi-choice,16,294191,0.0-19.0,"{"Q0":"18 - 25 years of age"}",NULL,NULL,NULL,NULL,NULL,NULL,NULL
NULL,4404,survey-text,17,298595,0.0-20.0,"{"Q0":"Male"}",NULL,NULL,NULL,NULL,NULL,NULL,NULL
NULL,6280,survey-multi-choice,18,304878,0.0-21.0,"{"Q0":"Black or African American"}",NULL,NULL,NULL,NULL,NULL,NULL,NULL
"[{"page_index":0,"viewing_time":34525},{"page_index":1,"viewing_time":80653},{"page_index":2,"viewing_time":45868},{"page_index":3,"viewing_time":23817},{"page_index":4,"viewing_time":42093},{"page_index":5,"viewing_time":15019}]",241975,instructions,19,546853,0.0-22.0-0.0,NULL,NULL,NULL,NULL,NULL,NULL,NULL,NULL
NULL,8373,html-keyboard-response,20,555228,0.0-22.0-1.0,NULL,"Are you ready to solve a practice Sudoku? <br><br> Yes, I am ready! (Press C) <br><br> Not yet, I would like to read the rules once again, please! (Press R)",67,NULL,NULL,NULL,NULL,NULL
"[{"page_index":0,"viewing_time":8137}]",8137,instructions,21,563365,0.0-23.0,NULL,NULL,NULL,NULL,NULL,NULL,NULL,NULL
NULL,21167,survey-likert,22,584533,0.0-24.0,"{"Q0":4}",NULL,NULL,NULL,NULL,NULL,NULL,NULL
"[{"page_index":0,"viewing_time":30960},{"page_index":1,"viewing_time":19049}]",50010,instructions,23,634544,0.0-25.0,NULL,NULL,NULL,NULL,NULL,NULL,NULL,NULL
NULL,16136,image-keyboard-response,24,650680,0.0-26.0,NULL,img/app1.png,75,NULL,NULL,NULL,NULL,NULL
NULL,15407,image-keyboard-response,25,666089,0.0-27.0,NULL,img/app2.png,75,NULL,NULL,NULL,NULL,NULL
NULL,6564,image-keyboard-response,26,672655,0.0-28.0,NULL,img/app3.png,68,NULL,NULL,NULL,NULL,NULL
NULL,7259,image-keyboard-response,27,679915,0.0-29.0,NULL,img/app4.png,68,NULL,NULL,NULL,NULL,NULL
NULL,15624,image-keyboard-response,28,695539,0.0-30.0,NULL,img/app5.png,68,NULL,NULL,NULL,NULL,NULL
"[{"page_index":0,"viewing_time":4914},{"page_index":1,"viewing_time":27111},{"page_index":2,"viewing_time":21690}]",53715,instructions,29,749254,0.0-31.0,NULL,NULL,NULL,NULL,NULL,NULL,NULL,NULL
NULL,NULL,sudoku_trial,30,873236,0.0-32.0,NULL,NULL,NULL,NULL,boards2x3,a,1,
"[{"page_index":0,"viewing_time":3761},{"page_index":1,"viewing_time":11398}]",15160,instructions,31,888396,0.0-33.0,NULL,NULL,NULL,NULL,NULL,NULL,NULL,NULL
NULL,36211,survey-likert,32,924608,0.0-34.0,"{"Q0":1,"Q1":3,"Q2":6}",NULL,NULL,NULL,NULL,NULL,NULL,NULL
NULL,23684,survey-likert,33,948294,0.0-35.0,"{"Q0":0,"Q1":0,"Q2":1}",NULL,NULL,NULL,NULL,NULL,NULL,NULL
NULL,31845,survey-likert,34,980140,0.0-36.0,"{"Q0":1,"Q1":6,"Q2":7,"Q3":7}",NULL,NULL,NULL,NULL,NULL,NULL,NULL
"[{"page_index":0,"viewing_time":2903}]",2903,instructions,35,983043,0.0-37.0,NULL,NULL,NULL,NULL,NULL,NULL,NULL,NULL
NULL,31958,survey-likert,36,1015003,0.0-38.0,"{"Q0":0,"Q1":1,"Q2":0}",NULL,NULL,NULL,NULL,NULL,NULL,NULL
NULL,35490,survey-likert,37,1050495,0.0-39.0,"{"Q0":8,"Q1":8,"Q2":0}",NULL,NULL,NULL,NULL,NULL,NULL,NULL
"[{"page_index":0,"viewing_time":4880}]",4880,instructions,38,1055375,0.0-40.0,NULL,NULL,NULL,NULL,NULL,NULL,NULL,NULL
NULL,12688,survey-likert,39,1068064,0.0-41.0,"{"Q0":2}",NULL,NULL,NULL,NULL,NULL,NULL,NULL
"[{"page_index":0,"viewing_time":68659},{"page_index":1,"viewing_time":4086}]",72745,instructions,40,1140810,0.0-42.0,NULL,NULL,NULL,NULL,NULL,NULL,NULL,NULL
NULL,16930,image-keyboard-response,41,1157741,0.0-43.0,NULL,img/app6.png,75,NULL,NULL,NULL,NULL,NULL
NULL,12654,image-keyboard-response,42,1170397,0.0-44.0,NULL,img/app7.png,75,NULL,NULL,NULL,NULL,NULL
NULL,1429,image-keyboard-response,43,1171827,0.0-45.0,NULL,img/app8.png,75,NULL,NULL,NULL,NULL,NULL
NULL,4512,image-keyboard-response,44,1176339,0.0-46.0,NULL,img/app9.png,75,NULL,NULL,NULL,NULL,NULL
NULL,712,image-keyboard-response,45,1177052,0.0-47.0,NULL,img/app10.png,75,NULL,NULL,NULL,NULL,NULL
"[{"page_index":0,"viewing_time":3639}]",3639,instructions,46,1180692,0.0-48.0,NULL,NULL,NULL,NULL,NULL,NULL,NULL,NULL
NULL,NULL,sudoku_trial,47,1302911,0.0-49.0,NULL,NULL,NULL,NULL,boards2x3,b,2,
NULL,NULL,sudoku_trial,48,1400544,0.0-50.0,NULL,NULL,NULL,97631,boards2x3,a,3,1
NULL,NULL,sudoku_trial,49,1523270,0.0-51.0,NULL,NULL,NULL,NULL,boards2x3,c,3,
NULL,NULL,sudoku_trial,50,1637156,0.0-52.0,NULL,NULL,NULL,113884,boards2x3,b,0,1
NULL,NULL,sudoku_trial,51,1725403,0.0-53.0,NULL,NULL,NULL,88245,boards2x3,c,1,1
NULL,NULL,sudoku_trial,52,1830860,0.0-54.0,NULL,NULL,NULL,105455,boards2x3,b,4,1
"[{"page_index":0,"viewing_time":7453},{"page_index":1,"viewing_time":2557}]",10010,instructions,53,1840871,0.0-55.0,NULL,NULL,NULL,NULL,NULL,NULL,NULL,NULL
NULL,22230,survey-likert,54,1863101,0.0-56.0,"{"Q0":6,"Q1":7,"Q2":8}",NULL,NULL,NULL,NULL,NULL,NULL,NULL
NULL,24961,survey-likert,55,1888064,0.0-57.0,"{"Q0":8,"Q1":0,"Q2":7}",NULL,NULL,NULL,NULL,NULL,NULL,NULL
NULL,24432,survey-likert,56,1912497,0.0-58.0,"{"Q0":7,"Q1":1,"Q2":1,"Q3":0}",NULL,NULL,NULL,NULL,NULL,NULL,NULL
"[{"page_index":0,"viewing_time":4313}]",4313,instructions,57,1916810,0.0-59.0,NULL,NULL,NULL,NULL,NULL,NULL,NULL,NULL
NULL,20572,survey-likert,58,1937385,0.0-60.0,"{"Q0":8,"Q1":8,"Q2":0}",NULL,NULL,NULL,NULL,NULL,NULL,NULL
NULL,9762,survey-likert,59,1947148,0.0-61.0,"{"Q0":8,"Q1":8,"Q2":8}",NULL,NULL,NULL,NULL,NULL,NULL,NULL
"[{"page_index":0,"viewing_time":4689}]",4690,instructions,60,1951838,0.0-62.0,NULL,NULL,NULL,NULL,NULL,NULL,NULL,NULL
NULL,10722,survey-likert,61,1962560,0.0-63.0,"{"Q0":6}",NULL,NULL,NULL,NULL,NULL,NULL,NULL
"[{"page_index":0,"viewing_time":3500},{"page_index":1,"viewing_time":2492}]",5993,instructions,62,1968553,0.0-64.0,NULL,NULL,NULL,NULL,NULL,NULL,NULL,NULL
NULL,5390,image-keyboard-response,63,1973943,0.0-65.0,NULL,img/app11.png,68,NULL,NULL,NULL,NULL,NULL
NULL,11552,image-keyboard-response,64,1985496,0.0-66.0,NULL,img/app12.png,75,NULL,NULL,NULL,NULL,NULL
NULL,3449,image-keyboard-response,65,1988946,0.0-67.0,NULL,img/app13.png,68,NULL,NULL,NULL,NULL,NULL
NULL,3611,image-keyboard-response,66,1992559,0.0-68.0,NULL,img/app14.png,68,NULL,NULL,NULL,NULL,NULL
NULL,2547,image-keyboard-response,67,1995106,0.0-69.0,NULL,img/app15.png,75,NULL,NULL,NULL,NULL,NULL
"[{"page_index":0,"viewing_time":1360}]",1361,instructions,68,1996468,0.0-70.0,NULL,NULL,NULL,NULL,NULL,NULL,NULL,NULL
"[{"page_index":0,"viewing_time":51453},{"page_index":1,"viewing_time":21613},{"page_index":2,"viewing_time":17524},{"page_index":3,"viewing_time":6960}]",97551,instructions,69,2094020,0.0-71.0,NULL,NULL,NULL,NULL,NULL,NULL,NULL,NULL
NULL,25838,survey-text,70,2119859,0.0-72.0,"{"Q0":"s.anifowoshe@jacobs-university.de"}",NULL,NULL,NULL,NULL,NULL,NULL,NULL
"[{"page_index":0,"viewing_time":11102},{"page_index":1,"viewing_time":20017},{"page_index":2,"viewing_time":3442},{"page_index":3,"viewing_time":3227}]",37789,instructions,0,37791,0.0-0.0,NULL,NULL,NULL,NULL,NULL,NULL,NULL,NULL
NULL,5325,survey-multi-choice,1,43124,0.0-1.0,"{"Q0":"I agree to participate in this research study"}",NULL,NULL,NULL,NULL,NULL,NULL,NULL
"[{"page_index":0,"viewing_time":17038},{"page_index":1,"viewing_time":6911},{"page_index":2,"viewing_time":8314}]",32264,instructions,2,75388,0.0-2.0,NULL,NULL,NULL,NULL,NULL,NULL,NULL,NULL
NULL,16444,survey-likert,3,91835,0.0-3.0,"{"Q0":3,"Q1":2,"Q2":2}",NULL,NULL,NULL,NULL,NULL,NULL,NULL
NULL,9986,survey-likert,4,101824,0.0-4.0,"{"Q0":2,"Q1":2,"Q2":3}",NULL,NULL,NULL,NULL,NULL,NULL,NULL
NULL,14108,survey-likert,5,115934,0.0-5.0,"{"Q0":2,"Q1":2,"Q2":2}",NULL,NULL,NULL,NULL,NULL,NULL,NULL
NULL,14116,survey-likert,6,130052,0.0-6.0,"{"Q0":1,"Q1":2,"Q2":1}",NULL,NULL,NULL,NULL,NULL,NULL,NULL
NULL,12130,survey-likert,7,142184,0.0-7.0,"{"Q0":1,"Q1":1,"Q2":2}",NULL,NULL,NULL,NULL,NULL,NULL,NULL
NULL,17662,survey-likert,8,159847,0.0-8.0,"{"Q0":1,"Q1":2,"Q2":1}",NULL,NULL,NULL,NULL,NULL,NULL,NULL
"[{"page_index":0,"viewing_time":6682}]",6683,instructions,9,166531,0.0-9.0,NULL,NULL,NULL,NULL,NULL,NULL,NULL,NULL
"[{"page_index":0,"viewing_time":5138}]",5138,instructions,10,171670,0.0-10.0,NULL,NULL,NULL,NULL,NULL,NULL,NULL,NULL
NULL,18810,survey-likert,11,190482,0.0-11.0,"{"Q0":1,"Q1":1,"Q2":2}",NULL,NULL,NULL,NULL,NULL,NULL,NULL
NULL,19474,survey-likert,12,209959,0.0-12.0,"{"Q0":0,"Q1":0,"Q2":0}",NULL,NULL,NULL,NULL,NULL,NULL,NULL
NULL,5265,survey-multi-choice,13,215230,0.0-13.0,"{"Q0":"Yes, I solve Sudoku regularly"}",NULL,NULL,NULL,NULL,NULL,NULL,NULL
NULL,4626,survey-multi-choice,14,219860,0.0-14.0-0.0,"{"Q0":"Average"}",NULL,NULL,NULL,NULL,NULL,NULL,NULL
NULL,6132,survey-multi-choice,15,225994,0.0-15.0,"{"Q0":"Undergraduate degree (e.g., BA)"}",NULL,NULL,NULL,NULL,NULL,NULL,NULL
NULL,10256,survey-text,16,236251,0.0-16.0-0.0,"{"Q0":"Humanities"}",NULL,NULL,NULL,NULL,NULL,NULL,NULL
NULL,3576,survey-multi-choice,17,239830,0.0-19.0,"{"Q0":"18 - 25 years of age"}",NULL,NULL,NULL,NULL,NULL,NULL,NULL
NULL,5063,survey-text,18,244894,0.0-20.0,"{"Q0":"Female"}",NULL,NULL,NULL,NULL,NULL,NULL,NULL
NULL,8796,survey-multi-choice,19,253692,0.0-21.0,"{"Q0":"White"}",NULL,NULL,NULL,NULL,NULL,NULL,NULL
"[{"page_index":0,"viewing_time":10076},{"page_index":1,"viewing_time":18479},{"page_index":2,"viewing_time":10193},{"page_index":3,"viewing_time":9661},{"page_index":4,"viewing_time":2178},{"page_index":5,"viewing_time":2334}]",52921,instructions,20,306613,0.0-22.0-0.0,NULL,NULL,NULL,NULL,NULL,NULL,NULL,NULL
NULL,3705,html-keyboard-response,21,310319,0.0-22.0-1.0,NULL,"Are you ready to solve a practice Sudoku? <br><br> Yes, I am ready! (Press C) <br><br> Not yet, I would like to read the rules once again, please! (Press R)",67,NULL,NULL,NULL,NULL,NULL
"[{"page_index":0,"viewing_time":2795}]",2796,instructions,22,313116,0.0-23.0,NULL,NULL,NULL,NULL,NULL,NULL,NULL,NULL
NULL,11332,survey-likert,23,324451,0.0-24.0,"{"Q0":6}",NULL,NULL,NULL,NULL,NULL,NULL,NULL
"[{"page_index":0,"viewing_time":15345},{"page_index":1,"viewing_time":5809}]",21155,instructions,24,345607,0.0-25.0,NULL,NULL,NULL,NULL,NULL,NULL,NULL,NULL
NULL,4120,image-keyboard-response,25,349729,0.0-26.0,NULL,img/app1.png,68,NULL,NULL,NULL,NULL,NULL
NULL,6309,image-keyboard-response,26,356039,0.0-27.0,NULL,img/app2.png,68,NULL,NULL,NULL,NULL,NULL
NULL,5391,image-keyboard-response,27,361431,0.0-28.0,NULL,img/app3.png,68,NULL,NULL,NULL,NULL,NULL
NULL,6811,image-keyboard-response,28,368242,0.0-29.0,NULL,img/app4.png,68,NULL,NULL,NULL,NULL,NULL
NULL,6563,image-keyboard-response,29,374806,0.0-30.0,NULL,img/app5.png,68,NULL,NULL,NULL,NULL,NULL
"[{"page_index":0,"viewing_time":2610},{"page_index":1,"viewing_time":9478},{"page_index":2,"viewing_time":7798}]",19886,instructions,30,394692,0.0-31.0,NULL,NULL,NULL,NULL,NULL,NULL,NULL,NULL
NULL,NULL,sudoku_trial,31,455733,0.0-32.0,NULL,NULL,NULL,61036,boards2x3,a,1,1
"[{"page_index":0,"viewing_time":2319},{"page_index":1,"viewing_time":3881}]",6201,instructions,32,461934,0.0-33.0,NULL,NULL,NULL,NULL,NULL,NULL,NULL,NULL
NULL,11351,survey-likert,33,473289,0.0-34.0,"{"Q0":4,"Q1":4,"Q2":5}",NULL,NULL,NULL,NULL,NULL,NULL,NULL
NULL,8325,survey-likert,34,481617,0.0-35.0,"{"Q0":6,"Q1":0,"Q2":0}",NULL,NULL,NULL,NULL,NULL,NULL,NULL
NULL,14642,survey-likert,35,496262,0.0-36.0,"{"Q0":5,"Q1":0,"Q2":0,"Q3":0}",NULL,NULL,NULL,NULL,NULL,NULL,NULL
"[{"page_index":0,"viewing_time":6018}]",6018,instructions,36,502281,0.0-37.0,NULL,NULL,NULL,NULL,NULL,NULL,NULL,NULL
NULL,11937,survey-likert,37,514218,0.0-38.0,"{"Q0":6,"Q1":6,"Q2":2}",NULL,NULL,NULL,NULL,NULL,NULL,NULL
NULL,16127,survey-likert,38,530347,0.0-39.0,"{"Q0":5,"Q1":7,"Q2":7}",NULL,NULL,NULL,NULL,NULL,NULL,NULL
"[{"page_index":0,"viewing_time":2944}]",2944,instructions,39,533292,0.0-40.0,NULL,NULL,NULL,NULL,NULL,NULL,NULL,NULL
NULL,12349,survey-likert,40,545641,0.0-41.0,"{"Q0":6}",NULL,NULL,NULL,NULL,NULL,NULL,NULL
"[{"page_index":0,"viewing_time":5298},{"page_index":1,"viewing_time":2088}]",7387,instructions,41,553028,0.0-42.0,NULL,NULL,NULL,NULL,NULL,NULL,NULL,NULL
NULL,4225,image-keyboard-response,42,557253,0.0-43.0,NULL,img/app6.png,68,NULL,NULL,NULL,NULL,NULL
NULL,2545,image-keyboard-response,43,559799,0.0-44.0,NULL,img/app7.png,68,NULL,NULL,NULL,NULL,NULL
NULL,1886,image-keyboard-response,44,561686,0.0-45.0,NULL,img/app8.png,68,NULL,NULL,NULL,NULL,NULL
NULL,3381,image-keyboard-response,45,565067,0.0-46.0,NULL,img/app9.png,68,NULL,NULL,NULL,NULL,NULL
NULL,1673,image-keyboard-response,46,566740,0.0-47.0,NULL,img/app10.png,68,NULL,NULL,NULL,NULL,NULL
"[{"page_index":0,"viewing_time":3368}]",3368,instructions,47,570108,0.0-48.0,NULL,NULL,NULL,NULL,NULL,NULL,NULL,NULL
NULL,NULL,sudoku_trial,48,618085,0.0-49.0,NULL,NULL,NULL,47975,boards2x3,b,0,1
NULL,NULL,sudoku_trial,49,679483,0.0-50.0,NULL,NULL,NULL,61397,boards2x3,a,3,1
NULL,NULL,sudoku_trial,50,709159,0.0-51.0,NULL,NULL,NULL,29674,boards2x3,c,3,1
NULL,NULL,sudoku_trial,51,751976,0.0-52.0,NULL,NULL,NULL,42816,boards2x3,b,4,1
NULL,NULL,sudoku_trial,52,792652,0.0-53.0,NULL,NULL,NULL,40674,boards2x3,b,2,1
NULL,NULL,sudoku_trial,53,830917,0.0-54.0,NULL,NULL,NULL,38264,boards2x3,c,1,1
"[{"page_index":0,"viewing_time":3998},{"page_index":1,"viewing_time":3012}]",7010,instructions,54,837927,0.0-55.0,NULL,NULL,NULL,NULL,NULL,NULL,NULL,NULL
NULL,9145,survey-likert,55,847074,0.0-56.0,"{"Q0":4,"Q1":1,"Q2":4}",NULL,NULL,NULL,NULL,NULL,NULL,NULL
NULL,6564,survey-likert,56,853641,0.0-57.0,"{"Q0":7,"Q1":0,"Q2":0}",NULL,NULL,NULL,NULL,NULL,NULL,NULL
NULL,13353,survey-likert,57,866995,0.0-58.0,"{"Q0":4,"Q1":5,"Q2":7,"Q3":0}",NULL,NULL,NULL,NULL,NULL,NULL,NULL
"[{"page_index":0,"viewing_time":4283}]",4284,instructions,58,871279,0.0-59.0,NULL,NULL,NULL,NULL,NULL,NULL,NULL,NULL
NULL,8790,survey-likert,59,880070,0.0-60.0,"{"Q0":6,"Q1":7,"Q2":2}",NULL,NULL,NULL,NULL,NULL,NULL,NULL
NULL,8002,survey-likert,60,888073,0.0-61.0,"{"Q0":4,"Q1":6,"Q2":6}",NULL,NULL,NULL,NULL,NULL,NULL,NULL
"[{"page_index":0,"viewing_time":2523}]",2523,instructions,61,890596,0.0-62.0,NULL,NULL,NULL,NULL,NULL,NULL,NULL,NULL
NULL,3759,survey-likert,62,894356,0.0-63.0,"{"Q0":6}",NULL,NULL,NULL,NULL,NULL,NULL,NULL
"[{"page_index":0,"viewing_time":2315},{"page_index":1,"viewing_time":1186}]",3501,instructions,63,897858,0.0-64.0,NULL,NULL,NULL,NULL,NULL,NULL,NULL,NULL
NULL,2338,image-keyboard-response,64,900197,0.0-65.0,NULL,img/app11.png,68,NULL,NULL,NULL,NULL,NULL
NULL,3099,image-keyboard-response,65,903297,0.0-66.0,NULL,img/app12.png,68,NULL,NULL,NULL,NULL,NULL
NULL,1684,image-keyboard-response,66,904981,0.0-67.0,NULL,img/app13.png,68,NULL,NULL,NULL,NULL,NULL
NULL,1444,image-keyboard-response,67,906427,0.0-68.0,NULL,img/app14.png,68,NULL,NULL,NULL,NULL,NULL
NULL,1425,image-keyboard-response,68,907852,0.0-69.0,NULL,img/app15.png,68,NULL,NULL,NULL,NULL,NULL
"[{"page_index":0,"viewing_time":2083}]",2083,instructions,69,909937,0.0-70.0,NULL,NULL,NULL,NULL,NULL,NULL,NULL,NULL
"[{"page_index":0,"viewing_time":3403},{"page_index":1,"viewing_time":3509},{"page_index":0,"viewing_time":24961},{"page_index":1,"viewing_time":12849},{"page_index":2,"viewing_time":9722},{"page_index":3,"viewing_time":6254}]",60698,instructions,70,970635,0.0-71.0,NULL,NULL,NULL,NULL,NULL,NULL,NULL,NULL
NULL,14390,survey-text,71,985026,0.0-72.0,"{"Q0":"e.mandija.16@aberdeen.ac.uk"}",NULL,NULL,NULL,NULL,NULL,NULL,NULL
"[{"page_index":0,"viewing_time":22743},{"page_index":1,"viewing_time":2685747},{"page_index":2,"viewing_time":33827},{"page_index":3,"viewing_time":24894}]",2767212,instructions,0,2767214,0.0-0.0,NULL,NULL,NULL,NULL,NULL,NULL,NULL,NULL
NULL,22035,survey-multi-choice,1,2789254,0.0-1.0,"{"Q0":"I agree to participate in this research study"}",NULL,NULL,NULL,NULL,NULL,NULL,NULL
"[{"page_index":0,"viewing_time":19034},{"page_index":1,"viewing_time":11170},{"page_index":2,"viewing_time":13763}]",43967,instructions,2,2833221,0.0-2.0,NULL,NULL,NULL,NULL,NULL,NULL,NULL,NULL
NULL,22940,survey-likert,3,2856165,0.0-3.0,"{"Q0":3,"Q1":2,"Q2":2}",NULL,NULL,NULL,NULL,NULL,NULL,NULL
NULL,20270,survey-likert,4,2876436,0.0-4.0,"{"Q0":2,"Q1":2,"Q2":3}",NULL,NULL,NULL,NULL,NULL,NULL,NULL
NULL,20349,survey-likert,5,2896786,0.0-5.0,"{"Q0":2,"Q1":2,"Q2":3}",NULL,NULL,NULL,NULL,NULL,NULL,NULL
NULL,26864,survey-likert,6,2923652,0.0-6.0,"{"Q0":2,"Q1":2,"Q2":2}",NULL,NULL,NULL,NULL,NULL,NULL,NULL
NULL,21990,survey-likert,7,2945642,0.0-7.0,"{"Q0":1,"Q1":1,"Q2":2}",NULL,NULL,NULL,NULL,NULL,NULL,NULL
NULL,34301,survey-likert,8,2979944,0.0-8.0,"{"Q0":1,"Q1":2,"Q2":1}",NULL,NULL,NULL,NULL,NULL,NULL,NULL
"[{"page_index":0,"viewing_time":11110}]",11110,instructions,9,2991054,0.0-9.0,NULL,NULL,NULL,NULL,NULL,NULL,NULL,NULL
"[{"page_index":0,"viewing_time":6726}]",6726,instructions,10,2997780,0.0-10.0,NULL,NULL,NULL,NULL,NULL,NULL,NULL,NULL
NULL,21345,survey-likert,11,3019127,0.0-11.0,"{"Q0":0,"Q1":0,"Q2":0}",NULL,NULL,NULL,NULL,NULL,NULL,NULL
NULL,17799,survey-likert,12,3036926,0.0-12.0,"{"Q0":1,"Q1":1,"Q2":0}",NULL,NULL,NULL,NULL,NULL,NULL,NULL
NULL,9101,survey-multi-choice,13,3046029,0.0-13.0,"{"Q0":"Yes, I solve Sudoku occasionally"}",NULL,NULL,NULL,NULL,NULL,NULL,NULL
NULL,4351,survey-multi-choice,14,3050383,0.0-14.0-0.0,"{"Q0":"Average"}",NULL,NULL,NULL,NULL,NULL,NULL,NULL
NULL,13109,survey-multi-choice,15,3063494,0.0-15.0,"{"Q0":"Undergraduate degree (e.g., BA)"}",NULL,NULL,NULL,NULL,NULL,NULL,NULL
NULL,23797,survey-text,16,3087293,0.0-16.0-0.0,"{"Q0":"BSc. Medicinal Chemistry and Chemical Biology"}",NULL,NULL,NULL,NULL,NULL,NULL,NULL
NULL,5677,survey-multi-choice,17,3092971,0.0-19.0,"{"Q0":"18 - 25 years of age"}",NULL,NULL,NULL,NULL,NULL,NULL,NULL
NULL,4450,survey-text,18,3097422,0.0-20.0,"{"Q0":"Female"}",NULL,NULL,NULL,NULL,NULL,NULL,NULL
NULL,22347,survey-multi-choice,19,3119771,0.0-21.0,"{"Q0":"White"}",NULL,NULL,NULL,NULL,NULL,NULL,NULL
"[{"page_index":0,"viewing_time":18249},{"page_index":1,"viewing_time":82106},{"page_index":2,"viewing_time":61353},{"page_index":3,"viewing_time":17176},{"page_index":4,"viewing_time":2168},{"page_index":5,"viewing_time":3056}]",184108,instructions,20,3303879,0.0-22.0-0.0,NULL,NULL,NULL,NULL,NULL,NULL,NULL,NULL
NULL,5287,html-keyboard-response,21,3309168,0.0-22.0-1.0,NULL,"Are you ready to solve a practice Sudoku? <br><br> Yes, I am ready! (Press C) <br><br> Not yet, I would like to read the rules once again, please! (Press R)",67,NULL,NULL,NULL,NULL,NULL
"[{"page_index":0,"viewing_time":5946}]",5946,instructions,22,3315116,0.0-23.0,NULL,NULL,NULL,NULL,NULL,NULL,NULL,NULL
NULL,24784,survey-likert,23,3339900,0.0-24.0,"{"Q0":5}",NULL,NULL,NULL,NULL,NULL,NULL,NULL
"[{"page_index":0,"viewing_time":26048},{"page_index":1,"viewing_time":14208},{"page_index":0,"viewing_time":19903},{"page_index":1,"viewing_time":2745}]",62904,instructions,24,3402804,0.0-25.0,NULL,NULL,NULL,NULL,NULL,NULL,NULL,NULL
NULL,26442,image-keyboard-response,25,3429248,0.0-26.0,NULL,img/app1.png,68,NULL,NULL,NULL,NULL,NULL
NULL,8958,image-keyboard-response,26,3438207,0.0-27.0,NULL,img/app2.png,75,NULL,NULL,NULL,NULL,NULL
NULL,5236,image-keyboard-response,27,3443444,0.0-28.0,NULL,img/app3.png,68,NULL,NULL,NULL,NULL,NULL
NULL,3056,image-keyboard-response,28,3446500,0.0-29.0,NULL,img/app4.png,75,NULL,NULL,NULL,NULL,NULL
NULL,12373,image-keyboard-response,29,3458874,0.0-30.0,NULL,img/app5.png,68,NULL,NULL,NULL,NULL,NULL
"[{"page_index":0,"viewing_time":2225},{"page_index":1,"viewing_time":15413},{"page_index":2,"viewing_time":10934}]",28573,instructions,30,3487447,0.0-31.0,NULL,NULL,NULL,NULL,NULL,NULL,NULL,NULL
NULL,NULL,sudoku_trial,31,3596572,0.0-32.0,NULL,NULL,NULL,109120,boards2x3,a,1,1
"[{"page_index":0,"viewing_time":3347},{"page_index":1,"viewing_time":6353}]",9701,instructions,32,3606273,0.0-33.0,NULL,NULL,NULL,NULL,NULL,NULL,NULL,NULL
NULL,24854,survey-likert,33,3631129,0.0-34.0,"{"Q0":4,"Q1":5,"Q2":6}",NULL,NULL,NULL,NULL,NULL,NULL,NULL
NULL,13449,survey-likert,34,3644581,0.0-35.0,"{"Q0":5,"Q1":0,"Q2":1}",NULL,NULL,NULL,NULL,NULL,NULL,NULL
NULL,12039,survey-likert,35,3656622,0.0-36.0,"{"Q0":4,"Q1":2,"Q2":0,"Q3":0}",NULL,NULL,NULL,NULL,NULL,NULL,NULL
"[{"page_index":0,"viewing_time":6656}]",6656,instructions,36,3663278,0.0-37.0,NULL,NULL,NULL,NULL,NULL,NULL,NULL,NULL
NULL,17159,survey-likert,37,3680439,0.0-38.0,"{"Q0":4,"Q1":1,"Q2":2}",NULL,NULL,NULL,NULL,NULL,NULL,NULL
NULL,13524,survey-likert,38,3693966,0.0-39.0,"{"Q0":3,"Q1":1,"Q2":5}",NULL,NULL,NULL,NULL,NULL,NULL,NULL
"[{"page_index":0,"viewing_time":3654}]",3654,instructions,39,3697621,0.0-40.0,NULL,NULL,NULL,NULL,NULL,NULL,NULL,NULL
NULL,7498,survey-likert,40,3705120,0.0-41.0,"{"Q0":5}",NULL,NULL,NULL,NULL,NULL,NULL,NULL
"[{"page_index":0,"viewing_time":2529},{"page_index":1,"viewing_time":5224}]",7753,instructions,41,3712873,0.0-42.0,NULL,NULL,NULL,NULL,NULL,NULL,NULL,NULL
NULL,2578,image-keyboard-response,42,3715451,0.0-43.0,NULL,img/app6.png,68,NULL,NULL,NULL,NULL,NULL
NULL,1724,image-keyboard-response,43,3717176,0.0-44.0,NULL,img/app7.png,68,NULL,NULL,NULL,NULL,NULL
NULL,984,image-keyboard-response,44,3718161,0.0-45.0,NULL,img/app8.png,68,NULL,NULL,NULL,NULL,NULL
NULL,1875,image-keyboard-response,45,3720037,0.0-46.0,NULL,img/app9.png,68,NULL,NULL,NULL,NULL,NULL
NULL,675,image-keyboard-response,46,3720713,0.0-47.0,NULL,img/app10.png,68,NULL,NULL,NULL,NULL,NULL
"[{"page_index":0,"viewing_time":1466}]",1467,instructions,47,3722180,0.0-48.0,NULL,NULL,NULL,NULL,NULL,NULL,NULL,NULL
NULL,NULL,sudoku_trial,48,3810181,0.0-49.0,NULL,NULL,NULL,88000,boards2x3,b,0,1
NULL,NULL,sudoku_trial,49,3901037,0.0-50.0,NULL,NULL,NULL,90855,boards2x3,b,4,1
NULL,NULL,sudoku_trial,50,3976967,0.0-51.0,NULL,NULL,NULL,75928,boards2x3,b,2,1
NULL,NULL,sudoku_trial,51,4051350,0.0-52.0,NULL,NULL,NULL,74381,boards2x3,c,3,1
NULL,NULL,sudoku_trial,52,4134411,0.0-53.0,NULL,NULL,NULL,83059,boards2x3,a,3,1
NULL,NULL,sudoku_trial,53,4210703,0.0-54.0,NULL,NULL,NULL,76289,boards2x3,c,1,1
"[{"page_index":0,"viewing_time":6059},{"page_index":1,"viewing_time":2544}]",8603,instructions,54,4219306,0.0-55.0,NULL,NULL,NULL,NULL,NULL,NULL,NULL,NULL
NULL,10895,survey-likert,55,4230203,0.0-56.0,"{"Q0":4,"Q1":6,"Q2":6}",NULL,NULL,NULL,NULL,NULL,NULL,NULL
NULL,8796,survey-likert,56,4239001,0.0-57.0,"{"Q0":6,"Q1":0,"Q2":0}",NULL,NULL,NULL,NULL,NULL,NULL,NULL
NULL,11554,survey-likert,57,4250558,0.0-58.0,"{"Q0":5,"Q1":0,"Q2":0,"Q3":0}",NULL,NULL,NULL,NULL,NULL,NULL,NULL
"[{"page_index":0,"viewing_time":4177}]",4177,instructions,58,4254735,0.0-59.0,NULL,NULL,NULL,NULL,NULL,NULL,NULL,NULL
NULL,15542,survey-likert,59,4270279,0.0-60.0,"{"Q0":5,"Q1":4,"Q2":2}",NULL,NULL,NULL,NULL,NULL,NULL,NULL
NULL,11155,survey-likert,60,4281436,0.0-61.0,"{"Q0":5,"Q1":2,"Q2":5}",NULL,NULL,NULL,NULL,NULL,NULL,NULL
"[{"page_index":0,"viewing_time":2500}]",2500,instructions,61,4283936,0.0-62.0,NULL,NULL,NULL,NULL,NULL,NULL,NULL,NULL
NULL,4154,survey-likert,62,4288091,0.0-63.0,"{"Q0":6}",NULL,NULL,NULL,NULL,NULL,NULL,NULL
"[{"page_index":0,"viewing_time":4278},{"page_index":1,"viewing_time":1930}]",6208,instructions,63,4294299,0.0-64.0,NULL,NULL,NULL,NULL,NULL,NULL,NULL,NULL
NULL,3324,image-keyboard-response,64,4297624,0.0-65.0,NULL,img/app11.png,68,NULL,NULL,NULL,NULL,NULL
NULL,703,image-keyboard-response,65,4298328,0.0-66.0,NULL,img/app12.png,68,NULL,NULL,NULL,NULL,NULL
NULL,1238,image-keyboard-response,66,4299566,0.0-67.0,NULL,img/app13.png,68,NULL,NULL,NULL,NULL,NULL
NULL,862,image-keyboard-response,67,4300429,0.0-68.0,NULL,img/app14.png,68,NULL,NULL,NULL,NULL,NULL
NULL,673,image-keyboard-response,68,4301102,0.0-69.0,NULL,img/app15.png,68,NULL,NULL,NULL,NULL,NULL
"[{"page_index":0,"viewing_time":2014}]",2014,instructions,69,4303116,0.0-70.0,NULL,NULL,NULL,NULL,NULL,NULL,NULL,NULL
"[{"page_index":0,"viewing_time":25658},{"page_index":1,"viewing_time":20779},{"page_index":2,"viewing_time":5557},{"page_index":3,"viewing_time":3737}]",55732,instructions,70,4358848,0.0-71.0,NULL,NULL,NULL,NULL,NULL,NULL,NULL,NULL
NULL,18886,survey-text,71,4377735,0.0-72.0,"{"Q0":"b.begaj@jacobs-university.de"}",NULL,NULL,NULL,NULL,NULL,NULL,NULL
"[{"page_index":0,"viewing_time":2154},{"page_index":1,"viewing_time":66983},{"page_index":2,"viewing_time":18958},{"page_index":3,"viewing_time":12358}]",100453,instructions,0,100454,0.0-0.0,NULL,NULL,NULL,NULL,NULL,NULL,NULL,NULL
NULL,5778,survey-multi-choice,1,106237,0.0-1.0,"{"Q0":"I agree to participate in this research study"}",NULL,NULL,NULL,NULL,NULL,NULL,NULL
"[{"page_index":0,"viewing_time":18468},{"page_index":1,"viewing_time":5297},{"page_index":2,"viewing_time":7666}]",31432,instructions,2,137669,0.0-2.0,NULL,NULL,NULL,NULL,NULL,NULL,NULL,NULL
NULL,25473,survey-likert,3,163144,0.0-3.0,"{"Q0":3,"Q1":1,"Q2":1}",NULL,NULL,NULL,NULL,NULL,NULL,NULL
NULL,19267,survey-likert,4,182412,0.0-4.0,"{"Q0":2,"Q1":2,"Q2":3}",NULL,NULL,NULL,NULL,NULL,NULL,NULL
NULL,18494,survey-likert,5,200908,0.0-5.0,"{"Q0":2,"Q1":3,"Q2":3}",NULL,NULL,NULL,NULL,NULL,NULL,NULL
NULL,19202,survey-likert,6,220112,0.0-6.0,"{"Q0":2,"Q1":0,"Q2":1}",NULL,NULL,NULL,NULL,NULL,NULL,NULL
NULL,54383,survey-likert,7,274498,0.0-7.0,"{"Q0":1,"Q1":2,"Q2":2}",NULL,NULL,NULL,NULL,NULL,NULL,NULL
NULL,22773,survey-likert,8,297272,0.0-8.0,"{"Q0":3,"Q1":2,"Q2":1}",NULL,NULL,NULL,NULL,NULL,NULL,NULL
"[{"page_index":0,"viewing_time":7328}]",7328,instructions,9,304600,0.0-9.0,NULL,NULL,NULL,NULL,NULL,NULL,NULL,NULL
"[{"page_index":0,"viewing_time":3864}]",3864,instructions,10,308464,0.0-10.0,NULL,NULL,NULL,NULL,NULL,NULL,NULL,NULL
NULL,17661,survey-likert,11,326127,0.0-11.0,"{"Q0":3,"Q1":3,"Q2":1}",NULL,NULL,NULL,NULL,NULL,NULL,NULL
NULL,18456,survey-likert,12,344585,0.0-12.0,"{"Q0":4,"Q1":2,"Q2":3}",NULL,NULL,NULL,NULL,NULL,NULL,NULL
NULL,7276,survey-multi-choice,13,351865,0.0-13.0,"{"Q0":"Yes, I solve Sudoku occasionally"}",NULL,NULL,NULL,NULL,NULL,NULL,NULL
NULL,7718,survey-multi-choice,14,359587,0.0-14.0-0.0,"{"Q0":"Rather bad"}",NULL,NULL,NULL,NULL,NULL,NULL,NULL
NULL,239836,survey-multi-choice,15,599426,0.0-15.0,"{"Q0":"Undergraduate degree (e.g., BA)"}",NULL,NULL,NULL,NULL,NULL,NULL,NULL
NULL,6587,survey-text,16,606015,0.0-16.0-0.0,"{"Q0":"Psychology"}",NULL,NULL,NULL,NULL,NULL,NULL,NULL
NULL,2696,survey-multi-choice,17,608714,0.0-19.0,"{"Q0":"18 - 25 years of age"}",NULL,NULL,NULL,NULL,NULL,NULL,NULL
NULL,4317,survey-text,18,613033,0.0-20.0,"{"Q0":"Male"}",NULL,NULL,NULL,NULL,NULL,NULL,NULL
NULL,11511,survey-multi-choice,19,624548,0.0-21.0,"{"Q0":"White"}",NULL,NULL,NULL,NULL,NULL,NULL,NULL
"[{"page_index":0,"viewing_time":140189},{"page_index":1,"viewing_time":9930},{"page_index":2,"viewing_time":7629},{"page_index":3,"viewing_time":11331},{"page_index":4,"viewing_time":1444},{"page_index":5,"viewing_time":1320}]",171843,instructions,20,796391,0.0-22.0-0.0,NULL,NULL,NULL,NULL,NULL,NULL,NULL,NULL
NULL,4677,html-keyboard-response,21,801070,0.0-22.0-1.0,NULL,"Are you ready to solve a practice Sudoku? <br><br> Yes, I am ready! (Press C) <br><br> Not yet, I would like to read the rules once again, please! (Press R)",67,NULL,NULL,NULL,NULL,NULL
"[{"page_index":0,"viewing_time":4573}]",4573,instructions,22,805644,0.0-23.0,NULL,NULL,NULL,NULL,NULL,NULL,NULL,NULL
NULL,5223,survey-likert,23,810868,0.0-24.0,"{"Q0":6}",NULL,NULL,NULL,NULL,NULL,NULL,NULL
"[{"page_index":0,"viewing_time":21134},{"page_index":1,"viewing_time":7309}]",28443,instructions,24,839312,0.0-25.0,NULL,NULL,NULL,NULL,NULL,NULL,NULL,NULL
NULL,7181,image-keyboard-response,25,846494,0.0-26.0,NULL,img/app1.png,68,NULL,NULL,NULL,NULL,NULL
NULL,7185,image-keyboard-response,26,853679,0.0-27.0,NULL,img/app2.png,68,NULL,NULL,NULL,NULL,NULL
NULL,7626,image-keyboard-response,27,861307,0.0-28.0,NULL,img/app3.png,68,NULL,NULL,NULL,NULL,NULL
NULL,12295,image-keyboard-response,28,873602,0.0-29.0,NULL,img/app4.png,68,NULL,NULL,NULL,NULL,NULL
NULL,8074,image-keyboard-response,29,881676,0.0-30.0,NULL,img/app5.png,68,NULL,NULL,NULL,NULL,NULL
"[{"page_index":0,"viewing_time":3079},{"page_index":1,"viewing_time":11325},{"page_index":2,"viewing_time":8047}]",22451,instructions,30,904127,0.0-31.0,NULL,NULL,NULL,NULL,NULL,NULL,NULL,NULL
NULL,NULL,sudoku_trial,31,947642,0.0-32.0,NULL,NULL,NULL,43510,boards2x3,a,1,1
"[{"page_index":0,"viewing_time":2167},{"page_index":1,"viewing_time":4991}]",7159,instructions,32,954801,0.0-33.0,NULL,NULL,NULL,NULL,NULL,NULL,NULL,NULL
NULL,37760,survey-likert,33,992563,0.0-34.0,"{"Q0":1,"Q1":1,"Q2":0}",NULL,NULL,NULL,NULL,NULL,NULL,NULL
NULL,8306,survey-likert,34,1000871,0.0-35.0,"{"Q0":6,"Q1":0,"Q2":0}",NULL,NULL,NULL,NULL,NULL,NULL,NULL
NULL,9083,survey-likert,35,1009956,0.0-36.0,"{"Q0":6,"Q1":0,"Q2":2,"Q3":0}",NULL,NULL,NULL,NULL,NULL,NULL,NULL
"[{"page_index":0,"viewing_time":5487}]",5487,instructions,36,1015443,0.0-37.0,NULL,NULL,NULL,NULL,NULL,NULL,NULL,NULL
NULL,22518,survey-likert,37,1037962,0.0-38.0,"{"Q0":8,"Q1":4,"Q2":6}",NULL,NULL,NULL,NULL,NULL,NULL,NULL
NULL,14812,survey-likert,38,1052776,0.0-39.0,"{"Q0":4,"Q1":8,"Q2":8}",NULL,NULL,NULL,NULL,NULL,NULL,NULL
"[{"page_index":0,"viewing_time":2850}]",2850,instructions,39,1055626,0.0-40.0,NULL,NULL,NULL,NULL,NULL,NULL,NULL,NULL
NULL,4068,survey-likert,40,1059696,0.0-41.0,"{"Q0":7}",NULL,NULL,NULL,NULL,NULL,NULL,NULL
"[{"page_index":0,"viewing_time":4968},{"page_index":1,"viewing_time":1746},{"page_index":0,"viewing_time":2600},{"page_index":1,"viewing_time":5829}]",15143,instructions,41,1074839,0.0-42.0,NULL,NULL,NULL,NULL,NULL,NULL,NULL,NULL
NULL,5287,image-keyboard-response,42,1080128,0.0-43.0,NULL,img/app6.png,68,NULL,NULL,NULL,NULL,NULL
NULL,868,image-keyboard-response,43,1080997,0.0-44.0,NULL,img/app7.png,68,NULL,NULL,NULL,NULL,NULL
NULL,639,image-keyboard-response,44,1081636,0.0-45.0,NULL,img/app8.png,68,NULL,NULL,NULL,NULL,NULL
NULL,827,image-keyboard-response,45,1082463,0.0-46.0,NULL,img/app9.png,68,NULL,NULL,NULL,NULL,NULL
NULL,2642,image-keyboard-response,46,1085107,0.0-47.0,NULL,img/app10.png,68,NULL,NULL,NULL,NULL,NULL
"[{"page_index":0,"viewing_time":6879}]",6880,instructions,47,1091987,0.0-48.0,NULL,NULL,NULL,NULL,NULL,NULL,NULL,NULL
NULL,NULL,sudoku_trial,48,1134052,0.0-49.0,NULL,NULL,NULL,42063,boards2x3,c,3,1
NULL,NULL,sudoku_trial,49,1175866,0.0-50.0,NULL,NULL,NULL,41814,boards2x3,b,4,1
NULL,NULL,sudoku_trial,50,1209568,0.0-51.0,NULL,NULL,NULL,33700,boards2x3,b,2,1
NULL,NULL,sudoku_trial,51,1244733,0.0-52.0,NULL,NULL,NULL,35165,boards2x3,c,1,1
NULL,NULL,sudoku_trial,52,1282027,0.0-53.0,NULL,NULL,NULL,37292,boards2x3,b,0,1
NULL,NULL,sudoku_trial,53,1326166,0.0-54.0,NULL,NULL,NULL,44136,boards2x3,a,3,1
"[{"page_index":0,"viewing_time":5573},{"page_index":1,"viewing_time":2538}]",8112,instructions,54,1334278,0.0-55.0,NULL,NULL,NULL,NULL,NULL,NULL,NULL,NULL
NULL,9102,survey-likert,55,1343381,0.0-56.0,"{"Q0":3,"Q1":0,"Q2":0}",NULL,NULL,NULL,NULL,NULL,NULL,NULL
NULL,7294,survey-likert,56,1350677,0.0-57.0,"{"Q0":8,"Q1":0,"Q2":0}",NULL,NULL,NULL,NULL,NULL,NULL,NULL
NULL,50261,survey-likert,57,1400941,0.0-58.0,"{"Q0":6,"Q1":2,"Q2":2,"Q3":0}",NULL,NULL,NULL,NULL,NULL,NULL,NULL
"[{"page_index":0,"viewing_time":9317}]",9317,instructions,58,1410258,0.0-59.0,NULL,NULL,NULL,NULL,NULL,NULL,NULL,NULL
NULL,12408,survey-likert,59,1422669,0.0-60.0,"{"Q0":8,"Q1":4,"Q2":4}",NULL,NULL,NULL,NULL,NULL,NULL,NULL
NULL,14122,survey-likert,60,1436793,0.0-61.0,"{"Q0":8,"Q1":8,"Q2":8}",NULL,NULL,NULL,NULL,NULL,NULL,NULL
"[{"page_index":0,"viewing_time":2024}]",2024,instructions,61,1438817,0.0-62.0,NULL,NULL,NULL,NULL,NULL,NULL,NULL,NULL
NULL,3580,survey-likert,62,1442399,0.0-63.0,"{"Q0":8}",NULL,NULL,NULL,NULL,NULL,NULL,NULL
"[{"page_index":0,"viewing_time":2747},{"page_index":1,"viewing_time":2238}]",4985,instructions,63,1447384,0.0-64.0,NULL,NULL,NULL,NULL,NULL,NULL,NULL,NULL
NULL,879,image-keyboard-response,64,1448263,0.0-65.0,NULL,img/app11.png,68,NULL,NULL,NULL,NULL,NULL
NULL,573,image-keyboard-response,65,1448837,0.0-66.0,NULL,img/app12.png,68,NULL,NULL,NULL,NULL,NULL
NULL,547,image-keyboard-response,66,1449384,0.0-67.0,NULL,img/app13.png,68,NULL,NULL,NULL,NULL,NULL
NULL,536,image-keyboard-response,67,1449949,0.0-68.0,NULL,img/app14.png,68,NULL,NULL,NULL,NULL,NULL
NULL,538,image-keyboard-response,68,1450488,0.0-69.0,NULL,img/app15.png,68,NULL,NULL,NULL,NULL,NULL
"[{"page_index":0,"viewing_time":1440}]",1440,instructions,69,1451929,0.0-70.0,NULL,NULL,NULL,NULL,NULL,NULL,NULL,NULL
"[{"page_index":0,"viewing_time":30993},{"page_index":1,"viewing_time":135851},{"page_index":2,"viewing_time":6904},{"page_index":3,"viewing_time":4159}]",177907,instructions,70,1629837,0.0-71.0,NULL,NULL,NULL,NULL,NULL,NULL,NULL,NULL
NULL,12147,survey-text,71,1641987,0.0-72.0,"{"Q0":"ar.john@jacobs-univeristy.de"}",NULL,NULL,NULL,NULL,NULL,NULL,NULL
"[{"page_index":0,"viewing_time":8819},{"page_index":1,"viewing_time":2705},{"page_index":2,"viewing_time":1578},{"page_index":3,"viewing_time":2122}]",15225,instructions,0,15225,0.0-0.0,NULL,NULL,NULL,NULL,NULL,NULL,NULL,NULL
NULL,5377,survey-multi-choice,1,20607,0.0-1.0,"{"Q0":"I agree to participate in this research study"}",NULL,NULL,NULL,NULL,NULL,NULL,NULL
"[{"page_index":0,"viewing_time":1531},{"page_index":1,"viewing_time":1684},{"page_index":2,"viewing_time":9799}]",13014,instructions,2,33621,0.0-2.0,NULL,NULL,NULL,NULL,NULL,NULL,NULL,NULL
NULL,19928,survey-likert,3,53551,0.0-3.0,"{"Q0":2,"Q1":1,"Q2":2}",NULL,NULL,NULL,NULL,NULL,NULL,NULL
NULL,18774,survey-likert,4,72325,0.0-4.0,"{"Q0":2,"Q1":2,"Q2":2}",NULL,NULL,NULL,NULL,NULL,NULL,NULL
NULL,15447,survey-likert,5,87774,0.0-5.0,"{"Q0":2,"Q1":2,"Q2":2}",NULL,NULL,NULL,NULL,NULL,NULL,NULL
NULL,12079,survey-likert,6,99853,0.0-6.0,"{"Q0":2,"Q1":1,"Q2":1}",NULL,NULL,NULL,NULL,NULL,NULL,NULL
NULL,16339,survey-likert,7,116194,0.0-7.0,"{"Q0":1,"Q1":1,"Q2":1}",NULL,NULL,NULL,NULL,NULL,NULL,NULL
NULL,14915,survey-likert,8,131111,0.0-8.0,"{"Q0":2,"Q1":2,"Q2":1}",NULL,NULL,NULL,NULL,NULL,NULL,NULL
"[{"page_index":0,"viewing_time":1535}]",1536,instructions,9,132647,0.0-9.0,NULL,NULL,NULL,NULL,NULL,NULL,NULL,NULL
"[{"page_index":0,"viewing_time":4597}]",4598,instructions,10,137245,0.0-10.0,NULL,NULL,NULL,NULL,NULL,NULL,NULL,NULL
NULL,13181,survey-likert,11,150427,0.0-11.0,"{"Q0":2,"Q1":1,"Q2":2}",NULL,NULL,NULL,NULL,NULL,NULL,NULL
NULL,11313,survey-likert,12,161743,0.0-12.0,"{"Q0":3,"Q1":2,"Q2":2}",NULL,NULL,NULL,NULL,NULL,NULL,NULL
NULL,6312,survey-multi-choice,13,168057,0.0-13.0,"{"Q0":"Yes, I solve Sudoku occasionally"}",NULL,NULL,NULL,NULL,NULL,NULL,NULL
NULL,5168,survey-multi-choice,14,173228,0.0-14.0-0.0,"{"Q0":"Rather good"}",NULL,NULL,NULL,NULL,NULL,NULL,NULL
NULL,4168,survey-multi-choice,15,177398,0.0-15.0,"{"Q0":"Graduate degree (e.g., MA, MSc)"}",NULL,NULL,NULL,NULL,NULL,NULL,NULL
NULL,10994,survey-text,16,188394,0.0-16.0-0.0,"{"Q0":"Computer Science"}",NULL,NULL,NULL,NULL,NULL,NULL,NULL
NULL,3793,survey-multi-choice,17,192189,0.0-19.0,"{"Q0":"18 - 25 years of age"}",NULL,NULL,NULL,NULL,NULL,NULL,NULL
NULL,6223,survey-text,18,198413,0.0-20.0,"{"Q0":"Female"}",NULL,NULL,NULL,NULL,NULL,NULL,NULL
NULL,11912,survey-multi-choice,19,210329,0.0-21.0,"{"Q0":"White"}",NULL,NULL,NULL,NULL,NULL,NULL,NULL
"[{"page_index":0,"viewing_time":7410},{"page_index":1,"viewing_time":4047},{"page_index":2,"viewing_time":2655},{"page_index":3,"viewing_time":6044},{"page_index":4,"viewing_time":1147},{"page_index":5,"viewing_time":1145}]",22448,instructions,20,232778,0.0-22.0-0.0,NULL,NULL,NULL,NULL,NULL,NULL,NULL,NULL
NULL,3673,html-keyboard-response,21,236453,0.0-22.0-1.0,NULL,"Are you ready to solve a practice Sudoku? <br><br> Yes, I am ready! (Press C) <br><br> Not yet, I would like to read the rules once again, please! (Press R)",67,NULL,NULL,NULL,NULL,NULL
"[{"page_index":0,"viewing_time":3825}]",3825,instructions,22,240278,0.0-23.0,NULL,NULL,NULL,NULL,NULL,NULL,NULL,NULL
NULL,4317,survey-likert,23,244596,0.0-24.0,"{"Q0":6}",NULL,NULL,NULL,NULL,NULL,NULL,NULL
"[{"page_index":0,"viewing_time":1739},{"page_index":1,"viewing_time":3226}]",4966,instructions,24,249562,0.0-25.0,NULL,NULL,NULL,NULL,NULL,NULL,NULL,NULL
NULL,8047,image-keyboard-response,25,257611,0.0-26.0,NULL,img/app1.png,68,NULL,NULL,NULL,NULL,NULL
NULL,1743,image-keyboard-response,26,259354,0.0-27.0,NULL,img/app2.png,68,NULL,NULL,NULL,NULL,NULL
NULL,1464,image-keyboard-response,27,260818,0.0-28.0,NULL,img/app3.png,68,NULL,NULL,NULL,NULL,NULL
NULL,1585,image-keyboard-response,28,262403,0.0-29.0,NULL,img/app4.png,68,NULL,NULL,NULL,NULL,NULL
NULL,1111,image-keyboard-response,29,263514,0.0-30.0,NULL,img/app5.png,75,NULL,NULL,NULL,NULL,NULL
"[{"page_index":0,"viewing_time":2284},{"page_index":1,"viewing_time":1908},{"page_index":2,"viewing_time":1194}]",5386,instructions,30,268900,0.0-31.0,NULL,NULL,NULL,NULL,NULL,NULL,NULL,NULL
NULL,NULL,sudoku_trial,31,364813,0.0-32.0,NULL,NULL,NULL,95910,boards2x3,a,1,1
"[{"page_index":0,"viewing_time":3187},{"page_index":1,"viewing_time":1536}]",4723,instructions,32,369537,0.0-33.0,NULL,NULL,NULL,NULL,NULL,NULL,NULL,NULL
NULL,14795,survey-likert,33,384334,0.0-34.0,"{"Q0":4,"Q1":2,"Q2":7}",NULL,NULL,NULL,NULL,NULL,NULL,NULL
NULL,8678,survey-likert,34,393014,0.0-35.0,"{"Q0":6,"Q1":2,"Q2":0}",NULL,NULL,NULL,NULL,NULL,NULL,NULL
NULL,11988,survey-likert,35,405004,0.0-36.0,"{"Q0":6,"Q1":4,"Q2":4,"Q3":4}",NULL,NULL,NULL,NULL,NULL,NULL,NULL
"[{"page_index":0,"viewing_time":3397}]",3397,instructions,36,408401,0.0-37.0,NULL,NULL,NULL,NULL,NULL,NULL,NULL,NULL
NULL,13031,survey-likert,37,421435,0.0-38.0,"{"Q0":7,"Q1":6,"Q2":2}",NULL,NULL,NULL,NULL,NULL,NULL,NULL
NULL,13719,survey-likert,38,435156,0.0-39.0,"{"Q0":4,"Q1":4,"Q2":7}",NULL,NULL,NULL,NULL,NULL,NULL,NULL
"[{"page_index":0,"viewing_time":2481}]",2481,instructions,39,437637,0.0-40.0,NULL,NULL,NULL,NULL,NULL,NULL,NULL,NULL
NULL,6373,survey-likert,40,444011,0.0-41.0,"{"Q0":7}",NULL,NULL,NULL,NULL,NULL,NULL,NULL
"[{"page_index":0,"viewing_time":1544},{"page_index":1,"viewing_time":1264}]",2808,instructions,41,446819,0.0-42.0,NULL,NULL,NULL,NULL,NULL,NULL,NULL,NULL
NULL,2314,image-keyboard-response,42,449134,0.0-43.0,NULL,img/app6.png,68,NULL,NULL,NULL,NULL,NULL
NULL,535,image-keyboard-response,43,449670,0.0-44.0,NULL,img/app7.png,68,NULL,NULL,NULL,NULL,NULL
NULL,1303,image-keyboard-response,44,450974,0.0-45.0,NULL,img/app8.png,68,NULL,NULL,NULL,NULL,NULL
NULL,399,image-keyboard-response,45,451374,0.0-46.0,NULL,img/app9.png,68,NULL,NULL,NULL,NULL,NULL
NULL,368,image-keyboard-response,46,451742,0.0-47.0,NULL,img/app10.png,75,NULL,NULL,NULL,NULL,NULL
"[{"page_index":0,"viewing_time":1524}]",1524,instructions,47,453267,0.0-48.0,NULL,NULL,NULL,NULL,NULL,NULL,NULL,NULL
NULL,NULL,sudoku_trial,48,510394,0.0-49.0,NULL,NULL,NULL,57126,boards2x3,b,0,1
NULL,NULL,sudoku_trial,49,559352,0.0-50.0,NULL,NULL,NULL,48957,boards2x3,a,3,1
NULL,NULL,sudoku_trial,50,632705,0.0-51.0,NULL,NULL,NULL,73351,boards2x3,b,2,1
NULL,NULL,sudoku_trial,51,694419,0.0-52.0,NULL,NULL,NULL,61712,boards2x3,b,4,1
NULL,NULL,sudoku_trial,52,742418,0.0-53.0,NULL,NULL,NULL,47996,boards2x3,c,1,1
NULL,NULL,sudoku_trial,53,788057,0.0-54.0,NULL,NULL,NULL,45637,boards2x3,c,3,1
"[{"page_index":0,"viewing_time":1673},{"page_index":1,"viewing_time":1082}]",2755,instructions,54,790812,0.0-55.0,NULL,NULL,NULL,NULL,NULL,NULL,NULL,NULL
NULL,12065,survey-likert,55,802880,0.0-56.0,"{"Q0":5,"Q1":1,"Q2":7}",NULL,NULL,NULL,NULL,NULL,NULL,NULL
NULL,6764,survey-likert,56,809647,0.0-57.0,"{"Q0":7,"Q1":1,"Q2":0}",NULL,NULL,NULL,NULL,NULL,NULL,NULL
NULL,9049,survey-likert,57,818699,0.0-58.0,"{"Q0":7,"Q1":5,"Q2":3,"Q3":3}",NULL,NULL,NULL,NULL,NULL,NULL,NULL
"[{"page_index":0,"viewing_time":1650}]",1650,instructions,58,820349,0.0-59.0,NULL,NULL,NULL,NULL,NULL,NULL,NULL,NULL
NULL,7964,survey-likert,59,828317,0.0-60.0,"{"Q0":7,"Q1":7,"Q2":2}",NULL,NULL,NULL,NULL,NULL,NULL,NULL
NULL,7808,survey-likert,60,836126,0.0-61.0,"{"Q0":4,"Q1":4,"Q2":5}",NULL,NULL,NULL,NULL,NULL,NULL,NULL
"[{"page_index":0,"viewing_time":1387}]",1387,instructions,61,837513,0.0-62.0,NULL,NULL,NULL,NULL,NULL,NULL,NULL,NULL
NULL,3171,survey-likert,62,840686,0.0-63.0,"{"Q0":6}",NULL,NULL,NULL,NULL,NULL,NULL,NULL
"[{"page_index":0,"viewing_time":2206},{"page_index":1,"viewing_time":1077}]",3283,instructions,63,843969,0.0-64.0,NULL,NULL,NULL,NULL,NULL,NULL,NULL,NULL
NULL,1852,image-keyboard-response,64,845822,0.0-65.0,NULL,img/app11.png,68,NULL,NULL,NULL,NULL,NULL
NULL,1170,image-keyboard-response,65,846992,0.0-66.0,NULL,img/app12.png,68,NULL,NULL,NULL,NULL,NULL
NULL,501,image-keyboard-response,66,847493,0.0-67.0,NULL,img/app13.png,68,NULL,NULL,NULL,NULL,NULL
NULL,496,image-keyboard-response,67,847990,0.0-68.0,NULL,img/app14.png,68,NULL,NULL,NULL,NULL,NULL
NULL,448,image-keyboard-response,68,848438,0.0-69.0,NULL,img/app15.png,68,NULL,NULL,NULL,NULL,NULL
"[{"page_index":0,"viewing_time":2463}]",2463,instructions,69,850903,0.0-70.0,NULL,NULL,NULL,NULL,NULL,NULL,NULL,NULL
"[{"page_index":0,"viewing_time":37776},{"page_index":1,"viewing_time":19082},{"page_index":2,"viewing_time":5686},{"page_index":3,"viewing_time":6413}]",68958,instructions,70,919861,0.0-71.0,NULL,NULL,NULL,NULL,NULL,NULL,NULL,NULL
NULL,14456,survey-text,71,934318,0.0-72.0,"{"Q0":"mari.chkalova@gmail.com"}",NULL,NULL,NULL,NULL,NULL,NULL,NULL
"[{"page_index":0,"viewing_time":97456},{"page_index":1,"viewing_time":48865},{"page_index":2,"viewing_time":22790},{"page_index":3,"viewing_time":28116}]",197228,instructions,0,197231,0.0-0.0,NULL,NULL,NULL,NULL,NULL,NULL,NULL,NULL
NULL,15334,survey-multi-choice,1,212572,0.0-1.0,"{"Q0":"I agree to participate in this research study"}",NULL,NULL,NULL,NULL,NULL,NULL,NULL
"[{"page_index":0,"viewing_time":23473},{"page_index":1,"viewing_time":10002},{"page_index":2,"viewing_time":13105}]",46581,instructions,2,259153,0.0-2.0,NULL,NULL,NULL,NULL,NULL,NULL,NULL,NULL
NULL,50430,survey-likert,3,309588,0.0-3.0,"{"Q0":3,"Q1":2,"Q2":3}",NULL,NULL,NULL,NULL,NULL,NULL,NULL
NULL,24597,survey-likert,4,334187,0.0-4.0,"{"Q0":2,"Q1":2,"Q2":2}",NULL,NULL,NULL,NULL,NULL,NULL,NULL
NULL,63939,survey-likert,5,398129,0.0-5.0,"{"Q0":2,"Q1":3,"Q2":2}",NULL,NULL,NULL,NULL,NULL,NULL,NULL
NULL,33200,survey-likert,6,431331,0.0-6.0,"{"Q0":2,"Q1":2,"Q2":3}",NULL,NULL,NULL,NULL,NULL,NULL,NULL
NULL,100784,survey-likert,7,532117,0.0-7.0,"{"Q0":2,"Q1":3,"Q2":2}",NULL,NULL,NULL,NULL,NULL,NULL,NULL
NULL,51489,survey-likert,8,583608,0.0-8.0,"{"Q0":2,"Q1":2,"Q2":1}",NULL,NULL,NULL,NULL,NULL,NULL,NULL
"[{"page_index":0,"viewing_time":2909}]",2910,instructions,9,586518,0.0-9.0,NULL,NULL,NULL,NULL,NULL,NULL,NULL,NULL
"[{"page_index":0,"viewing_time":6842}]",6844,instructions,10,593362,0.0-10.0,NULL,NULL,NULL,NULL,NULL,NULL,NULL,NULL
NULL,46023,survey-likert,11,639387,0.0-11.0,"{"Q0":1,"Q1":2,"Q2":2}",NULL,NULL,NULL,NULL,NULL,NULL,NULL
NULL,26708,survey-likert,12,666097,0.0-12.0,"{"Q0":1,"Q1":1,"Q2":2}",NULL,NULL,NULL,NULL,NULL,NULL,NULL
NULL,9720,survey-multi-choice,13,675823,0.0-13.0,"{"Q0":"No, I have never solved Sudoku puzzles before"}",NULL,NULL,NULL,NULL,NULL,NULL,NULL
NULL,9329,survey-multi-choice,14,685155,0.0-15.0,"{"Q0":"High school (four years or more)"}",NULL,NULL,NULL,NULL,NULL,NULL,NULL
NULL,4062,survey-multi-choice,15,689221,0.0-17.0-0.0,"{"Q0":"No, I am not a student"}",NULL,NULL,NULL,NULL,NULL,NULL,NULL
NULL,2379,survey-multi-choice,16,691604,0.0-19.0,"{"Q0":"18 - 25 years of age"}",NULL,NULL,NULL,NULL,NULL,NULL,NULL
NULL,29139,survey-text,17,720746,0.0-20.0,"{"Q0":"Male Robot"}",NULL,NULL,NULL,NULL,NULL,NULL,NULL
NULL,40255,survey-multi-choice,18,761008,0.0-21.0,"{"Q0":"Other"}",NULL,NULL,NULL,NULL,NULL,NULL,NULL
"[{"page_index":0,"viewing_time":20320},{"page_index":1,"viewing_time":14595},{"page_index":2,"viewing_time":22874},{"page_index":3,"viewing_time":47013},{"page_index":4,"viewing_time":13601},{"page_index":5,"viewing_time":5679}]",124082,instructions,19,885094,0.0-22.0-0.0,NULL,NULL,NULL,NULL,NULL,NULL,NULL,NULL
NULL,4763,html-keyboard-response,20,889858,0.0-22.0-1.0,NULL,"Are you ready to solve a practice Sudoku? <br><br> Yes, I am ready! (Press C) <br><br> Not yet, I would like to read the rules once again, please! (Press R)",67,NULL,NULL,NULL,NULL,NULL
"[{"page_index":0,"viewing_time":4271}]",4272,instructions,21,894131,0.0-23.0,NULL,NULL,NULL,NULL,NULL,NULL,NULL,NULL
NULL,13429,survey-likert,22,907562,0.0-24.0,"{"Q0":6}",NULL,NULL,NULL,NULL,NULL,NULL,NULL
"[{"page_index":0,"viewing_time":16433},{"page_index":1,"viewing_time":7417}]",23851,instructions,23,931413,0.0-25.0,NULL,NULL,NULL,NULL,NULL,NULL,NULL,NULL
NULL,36152,image-keyboard-response,24,967567,0.0-26.0,NULL,img/app1.png,68,NULL,NULL,NULL,NULL,NULL
NULL,32156,image-keyboard-response,25,999724,0.0-27.0,NULL,img/app2.png,68,NULL,NULL,NULL,NULL,NULL
NULL,23401,image-keyboard-response,26,1023126,0.0-28.0,NULL,img/app3.png,68,NULL,NULL,NULL,NULL,NULL
NULL,28944,image-keyboard-response,27,1052071,0.0-29.0,NULL,img/app4.png,68,NULL,NULL,NULL,NULL,NULL
NULL,45889,image-keyboard-response,28,1097961,0.0-30.0,NULL,img/app5.png,68,NULL,NULL,NULL,NULL,NULL
"[{"page_index":0,"viewing_time":4507},{"page_index":1,"viewing_time":16685},{"page_index":2,"viewing_time":14336}]",35529,instructions,29,1133490,0.0-31.0,NULL,NULL,NULL,NULL,NULL,NULL,NULL,NULL
NULL,NULL,sudoku_trial,30,1192637,0.0-32.0,NULL,NULL,NULL,59141,boards2x3,a,1,1
"[{"page_index":0,"viewing_time":3274},{"page_index":1,"viewing_time":9088}]",12363,instructions,31,1205000,0.0-33.0,NULL,NULL,NULL,NULL,NULL,NULL,NULL,NULL
NULL,17755,survey-likert,32,1222760,0.0-34.0,"{"Q0":4,"Q1":4,"Q2":6}",NULL,NULL,NULL,NULL,NULL,NULL,NULL
NULL,14343,survey-likert,33,1237106,0.0-35.0,"{"Q0":6,"Q1":0,"Q2":2}",NULL,NULL,NULL,NULL,NULL,NULL,NULL
NULL,29959,survey-likert,34,1267071,0.0-36.0,"{"Q0":4,"Q1":6,"Q2":0,"Q3":6}",NULL,NULL,NULL,NULL,NULL,NULL,NULL
"[{"page_index":0,"viewing_time":10919}]",10920,instructions,35,1277991,0.0-37.0,NULL,NULL,NULL,NULL,NULL,NULL,NULL,NULL
NULL,19418,survey-likert,36,1297414,0.0-38.0,"{"Q0":4,"Q1":4,"Q2":4}",NULL,NULL,NULL,NULL,NULL,NULL,NULL
NULL,63514,survey-likert,37,1360932,0.0-39.0,"{"Q0":8,"Q1":4,"Q2":7}",NULL,NULL,NULL,NULL,NULL,NULL,NULL
"[{"page_index":0,"viewing_time":7287}]",7288,instructions,38,1368220,0.0-40.0,NULL,NULL,NULL,NULL,NULL,NULL,NULL,NULL
NULL,14666,survey-likert,39,1382890,0.0-41.0,"{"Q0":5}",NULL,NULL,NULL,NULL,NULL,NULL,NULL
"[{"page_index":0,"viewing_time":10431},{"page_index":1,"viewing_time":9337}]",19769,instructions,40,1402659,0.0-42.0,NULL,NULL,NULL,NULL,NULL,NULL,NULL,NULL
NULL,3746,image-keyboard-response,41,1406406,0.0-43.0,NULL,img/app6.png,68,NULL,NULL,NULL,NULL,NULL
NULL,22820,image-keyboard-response,42,1429227,0.0-44.0,NULL,img/app7.png,68,NULL,NULL,NULL,NULL,NULL
NULL,16212,image-keyboard-response,43,1445439,0.0-45.0,NULL,img/app8.png,68,NULL,NULL,NULL,NULL,NULL
NULL,12882,image-keyboard-response,44,1458321,0.0-46.0,NULL,img/app9.png,68,NULL,NULL,NULL,NULL,NULL
NULL,14721,image-keyboard-response,45,1473043,0.0-47.0,NULL,img/app10.png,68,NULL,NULL,NULL,NULL,NULL
"[{"page_index":0,"viewing_time":5211}]",5211,instructions,46,1478254,0.0-48.0,NULL,NULL,NULL,NULL,NULL,NULL,NULL,NULL
NULL,NULL,sudoku_trial,47,1545903,0.0-49.0,NULL,NULL,NULL,67647,boards2x3,b,2,1
NULL,NULL,sudoku_trial,48,1599413,0.0-50.0,NULL,NULL,NULL,53507,boards2x3,b,4,1
NULL,NULL,sudoku_trial,49,1654892,0.0-51.0,NULL,NULL,NULL,55472,boards2x3,c,3,1
NULL,NULL,sudoku_trial,50,1705990,0.0-52.0,NULL,NULL,NULL,51095,boards2x3,a,3,1
NULL,NULL,sudoku_trial,51,1765023,0.0-53.0,NULL,NULL,NULL,59031,boards2x3,b,0,1
NULL,NULL,sudoku_trial,52,1831938,0.0-54.0,NULL,NULL,NULL,66911,boards2x3,c,1,1
"[{"page_index":0,"viewing_time":7311},{"page_index":1,"viewing_time":3710}]",11022,instructions,53,1842960,0.0-55.0,NULL,NULL,NULL,NULL,NULL,NULL,NULL,NULL
NULL,14785,survey-likert,54,1857749,0.0-56.0,"{"Q0":5,"Q1":5,"Q2":7}",NULL,NULL,NULL,NULL,NULL,NULL,NULL
NULL,11895,survey-likert,55,1869647,0.0-57.0,"{"Q0":5,"Q1":0,"Q2":0}",NULL,NULL,NULL,NULL,NULL,NULL,NULL
NULL,49754,survey-likert,56,1919405,0.0-58.0,"{"Q0":6,"Q1":6,"Q2":1,"Q3":4}",NULL,NULL,NULL,NULL,NULL,NULL,NULL
"[{"page_index":0,"viewing_time":4271}]",4272,instructions,57,1923677,0.0-59.0,NULL,NULL,NULL,NULL,NULL,NULL,NULL,NULL
NULL,20571,survey-likert,58,1944250,0.0-60.0,"{"Q0":4,"Q1":6,"Q2":5}",NULL,NULL,NULL,NULL,NULL,NULL,NULL
NULL,31674,survey-likert,59,1975927,0.0-61.0,"{"Q0":8,"Q1":4,"Q2":7}",NULL,NULL,NULL,NULL,NULL,NULL,NULL
"[{"page_index":0,"viewing_time":4678}]",4678,instructions,60,1980605,0.0-62.0,NULL,NULL,NULL,NULL,NULL,NULL,NULL,NULL
NULL,18424,survey-likert,61,1999030,0.0-63.0,"{"Q0":6}",NULL,NULL,NULL,NULL,NULL,NULL,NULL
"[{"page_index":0,"viewing_time":1902},{"page_index":1,"viewing_time":2200}]",4102,instructions,62,2003133,0.0-64.0,NULL,NULL,NULL,NULL,NULL,NULL,NULL,NULL
NULL,45743,image-keyboard-response,63,2048877,0.0-65.0,NULL,img/app11.png,68,NULL,NULL,NULL,NULL,NULL
NULL,-1,image-keyboard-response,64,2168879,0.0-66.0,NULL,img/app12.png,-1,NULL,NULL,NULL,NULL,NULL
NULL,2841,image-keyboard-response,65,2171722,0.0-67.0,NULL,img/app13.png,68,NULL,NULL,NULL,NULL,NULL
NULL,782,image-keyboard-response,66,2172506,0.0-68.0,NULL,img/app14.png,68,NULL,NULL,NULL,NULL,NULL
NULL,386,image-keyboard-response,67,2172893,0.0-69.0,NULL,img/app15.png,68,NULL,NULL,NULL,NULL,NULL
"[{"page_index":0,"viewing_time":994}]",994,instructions,68,2173888,0.0-70.0,NULL,NULL,NULL,NULL,NULL,NULL,NULL,NULL
"[{"page_index":0,"viewing_time":53869},{"page_index":1,"viewing_time":21634},{"page_index":2,"viewing_time":28671},{"page_index":3,"viewing_time":40075}]",144249,instructions,69,2318142,0.0-71.0,NULL,NULL,NULL,NULL,NULL,NULL,NULL,NULL
NULL,25877,survey-text,70,2344020,0.0-72.0,"{"Q0":"mevofficial@gmail.com"}",NULL,NULL,NULL,NULL,NULL,NULL,NULL
"[{"page_index":0,"viewing_time":77428},{"page_index":1,"viewing_time":23495},{"page_index":2,"viewing_time":9191},{"page_index":3,"viewing_time":14992}]",125107,instructions,0,125110,0.0-0.0,NULL,NULL,NULL,NULL,NULL,NULL,NULL,NULL
NULL,9908,survey-multi-choice,1,135022,0.0-1.0,"{"Q0":"I agree to participate in this research study"}",NULL,NULL,NULL,NULL,NULL,NULL,NULL
"[{"page_index":0,"viewing_time":18463},{"page_index":1,"viewing_time":230038},{"page_index":2,"viewing_time":21826}]",270327,instructions,2,405349,0.0-2.0,NULL,NULL,NULL,NULL,NULL,NULL,NULL,NULL
NULL,28566,survey-likert,3,433918,0.0-3.0,"{"Q0":3,"Q1":1,"Q2":1}",NULL,NULL,NULL,NULL,NULL,NULL,NULL
NULL,20701,survey-likert,4,454621,0.0-4.0,"{"Q0":3,"Q1":3,"Q2":2}",NULL,NULL,NULL,NULL,NULL,NULL,NULL
NULL,19966,survey-likert,5,474589,0.0-5.0,"{"Q0":2,"Q1":2,"Q2":3}",NULL,NULL,NULL,NULL,NULL,NULL,NULL
NULL,88042,survey-likert,6,562631,0.0-6.0,"{"Q0":3,"Q1":1,"Q2":0}",NULL,NULL,NULL,NULL,NULL,NULL,NULL
NULL,38933,survey-likert,7,601566,0.0-7.0,"{"Q0":2,"Q1":2,"Q2":1}",NULL,NULL,NULL,NULL,NULL,NULL,NULL
NULL,42086,survey-likert,8,643653,0.0-8.0,"{"Q0":3,"Q1":2,"Q2":0}",NULL,NULL,NULL,NULL,NULL,NULL,NULL
"[{"page_index":0,"viewing_time":3830}]",3830,instructions,9,647483,0.0-9.0,NULL,NULL,NULL,NULL,NULL,NULL,NULL,NULL
"[{"page_index":0,"viewing_time":4109}]",4109,instructions,10,651593,0.0-10.0,NULL,NULL,NULL,NULL,NULL,NULL,NULL,NULL
NULL,29074,survey-likert,11,680669,0.0-11.0,"{"Q0":2,"Q1":4,"Q2":1}",NULL,NULL,NULL,NULL,NULL,NULL,NULL
NULL,27181,survey-likert,12,707852,0.0-12.0,"{"Q0":3,"Q1":1,"Q2":0}",NULL,NULL,NULL,NULL,NULL,NULL,NULL
NULL,15429,survey-multi-choice,13,723284,0.0-13.0,"{"Q0":"Yes, I solved Sudoku once or twice"}",NULL,NULL,NULL,NULL,NULL,NULL,NULL
NULL,14023,survey-multi-choice,14,737310,0.0-15.0,"{"Q0":"Undergraduate degree (e.g., BA)"}",NULL,NULL,NULL,NULL,NULL,NULL,NULL
NULL,10613,survey-text,15,747924,0.0-16.0-0.0,"{"Q0":"Biochemistry and Cell Biology"}",NULL,NULL,NULL,NULL,NULL,NULL,NULL
NULL,2205,survey-multi-choice,16,750133,0.0-19.0,"{"Q0":"18 - 25 years of age"}",NULL,NULL,NULL,NULL,NULL,NULL,NULL
NULL,4103,survey-text,17,754236,0.0-20.0,"{"Q0":"Male"}",NULL,NULL,NULL,NULL,NULL,NULL,NULL
NULL,16621,survey-multi-choice,18,770861,0.0-21.0,"{"Q0":"White"}",NULL,NULL,NULL,NULL,NULL,NULL,NULL
"[{"page_index":0,"viewing_time":12696},{"page_index":1,"viewing_time":35047},{"page_index":2,"viewing_time":1128},{"page_index":1,"viewing_time":1105},{"page_index":2,"viewing_time":14271},{"page_index":3,"viewing_time":21457},{"page_index":4,"viewing_time":25344},{"page_index":5,"viewing_time":46720}]",157768,instructions,19,928629,0.0-22.0-0.0,NULL,NULL,NULL,NULL,NULL,NULL,NULL,NULL
NULL,3888,html-keyboard-response,20,932519,0.0-22.0-1.0,NULL,"Are you ready to solve a practice Sudoku? <br><br> Yes, I am ready! (Press C) <br><br> Not yet, I would like to read the rules once again, please! (Press R)",67,NULL,NULL,NULL,NULL,NULL
"[{"page_index":0,"viewing_time":5547}]",5548,instructions,21,938069,0.0-23.0,NULL,NULL,NULL,NULL,NULL,NULL,NULL,NULL
NULL,18024,survey-likert,22,956094,0.0-24.0,"{"Q0":6}",NULL,NULL,NULL,NULL,NULL,NULL,NULL
"[{"page_index":0,"viewing_time":30813},{"page_index":1,"viewing_time":20172}]",50985,instructions,23,1007079,0.0-25.0,NULL,NULL,NULL,NULL,NULL,NULL,NULL,NULL
NULL,16611,image-keyboard-response,24,1023693,0.0-26.0,NULL,img/app1.png,75,NULL,NULL,NULL,NULL,NULL
NULL,11975,image-keyboard-response,25,1035671,0.0-27.0,NULL,img/app2.png,68,NULL,NULL,NULL,NULL,NULL
NULL,12144,image-keyboard-response,26,1047816,0.0-28.0,NULL,img/app3.png,68,NULL,NULL,NULL,NULL,NULL
NULL,2165,image-keyboard-response,27,1049981,0.0-29.0,NULL,img/app4.png,68,NULL,NULL,NULL,NULL,NULL
NULL,3520,image-keyboard-response,28,1053502,0.0-30.0,NULL,img/app5.png,75,NULL,NULL,NULL,NULL,NULL
"[{"page_index":0,"viewing_time":4669},{"page_index":1,"viewing_time":20521},{"page_index":2,"viewing_time":13834}]",39024,instructions,29,1092526,0.0-31.0,NULL,NULL,NULL,NULL,NULL,NULL,NULL,NULL
NULL,NULL,sudoku_trial,30,1181663,0.0-32.0,NULL,NULL,NULL,89133,boards2x3,a,1,1
"[{"page_index":0,"viewing_time":3484},{"page_index":1,"viewing_time":6866}]",10350,instructions,31,1192013,0.0-33.0,NULL,NULL,NULL,NULL,NULL,NULL,NULL,NULL
NULL,61454,survey-likert,32,1253470,0.0-34.0,"{"Q0":4,"Q1":5,"Q2":6}",NULL,NULL,NULL,NULL,NULL,NULL,NULL
NULL,17381,survey-likert,33,1270853,0.0-35.0,"{"Q0":5,"Q1":0,"Q2":2}",NULL,NULL,NULL,NULL,NULL,NULL,NULL
NULL,20079,survey-likert,34,1290935,0.0-36.0,"{"Q0":8,"Q1":0,"Q2":0,"Q3":1}",NULL,NULL,NULL,NULL,NULL,NULL,NULL
"[{"page_index":0,"viewing_time":5381}]",5381,instructions,35,1296316,0.0-37.0,NULL,NULL,NULL,NULL,NULL,NULL,NULL,NULL
NULL,42758,survey-likert,36,1339076,0.0-38.0,"{"Q0":3,"Q1":8,"Q2":4}",NULL,NULL,NULL,NULL,NULL,NULL,NULL
NULL,36782,survey-likert,37,1375860,0.0-39.0,"{"Q0":8,"Q1":1,"Q2":2}",NULL,NULL,NULL,NULL,NULL,NULL,NULL
"[{"page_index":0,"viewing_time":3799}]",3799,instructions,38,1379660,0.0-40.0,NULL,NULL,NULL,NULL,NULL,NULL,NULL,NULL
NULL,16457,survey-likert,39,1396117,0.0-41.0,"{"Q0":4}",NULL,NULL,NULL,NULL,NULL,NULL,NULL
"[{"page_index":0,"viewing_time":18605},{"page_index":1,"viewing_time":5258}]",23863,instructions,40,1419980,0.0-42.0,NULL,NULL,NULL,NULL,NULL,NULL,NULL,NULL
NULL,5784,image-keyboard-response,41,1425766,0.0-43.0,NULL,img/app6.png,68,NULL,NULL,NULL,NULL,NULL
NULL,6116,image-keyboard-response,42,1431884,0.0-44.0,NULL,img/app7.png,68,NULL,NULL,NULL,NULL,NULL
NULL,9992,image-keyboard-response,43,1441877,0.0-45.0,NULL,img/app8.png,68,NULL,NULL,NULL,NULL,NULL
NULL,12703,image-keyboard-response,44,1454583,0.0-46.0,NULL,img/app9.png,68,NULL,NULL,NULL,NULL,NULL
NULL,7689,image-keyboard-response,45,1462272,0.0-47.0,NULL,img/app10.png,68,NULL,NULL,NULL,NULL,NULL
"[{"page_index":0,"viewing_time":2843}]",2844,instructions,46,1465116,0.0-48.0,NULL,NULL,NULL,NULL,NULL,NULL,NULL,NULL
NULL,NULL,sudoku_trial,47,1545091,0.0-49.0,NULL,NULL,NULL,79972,boards2x3,b,4,1
NULL,NULL,sudoku_trial,48,1628901,0.0-50.0,NULL,NULL,NULL,83808,boards2x3,c,1,1
NULL,NULL,sudoku_trial,49,1713863,0.0-51.0,NULL,NULL,NULL,84962,boards2x3,b,2,1
NULL,NULL,sudoku_trial,50,1784748,0.0-52.0,NULL,NULL,NULL,70884,boards2x3,a,3,1
NULL,NULL,sudoku_trial,51,1873717,0.0-53.0,NULL,NULL,NULL,88966,boards2x3,b,0,1
NULL,NULL,sudoku_trial,52,1948637,0.0-54.0,NULL,NULL,NULL,74918,boards2x3,c,3,1
"[{"page_index":0,"viewing_time":5855},{"page_index":1,"viewing_time":4631}]",10486,instructions,53,1959123,0.0-55.0,NULL,NULL,NULL,NULL,NULL,NULL,NULL,NULL
NULL,10585,survey-likert,54,1969710,0.0-56.0,"{"Q0":0,"Q1":0,"Q2":8}",NULL,NULL,NULL,NULL,NULL,NULL,NULL
NULL,5133,survey-likert,55,1974845,0.0-57.0,"{"Q0":8,"Q1":0,"Q2":0}",NULL,NULL,NULL,NULL,NULL,NULL,NULL
NULL,7176,survey-likert,56,1982023,0.0-58.0,"{"Q0":8,"Q1":0,"Q2":0,"Q3":0}",NULL,NULL,NULL,NULL,NULL,NULL,NULL
"[{"page_index":0,"viewing_time":3686}]",3686,instructions,57,1985709,0.0-59.0,NULL,NULL,NULL,NULL,NULL,NULL,NULL,NULL
NULL,30854,survey-likert,58,2016565,0.0-60.0,"{"Q0":6,"Q1":4,"Q2":2}",NULL,NULL,NULL,NULL,NULL,NULL,NULL
NULL,24112,survey-likert,59,2040680,0.0-61.0,"{"Q0":8,"Q1":8,"Q2":3}",NULL,NULL,NULL,NULL,NULL,NULL,NULL
"[{"page_index":0,"viewing_time":4348}]",4348,instructions,60,2045028,0.0-62.0,NULL,NULL,NULL,NULL,NULL,NULL,NULL,NULL
NULL,8975,survey-likert,61,2054005,0.0-63.0,"{"Q0":7}",NULL,NULL,NULL,NULL,NULL,NULL,NULL
"[{"page_index":0,"viewing_time":13486},{"page_index":1,"viewing_time":5726}]",19212,instructions,62,2073217,0.0-64.0,NULL,NULL,NULL,NULL,NULL,NULL,NULL,NULL
NULL,5358,image-keyboard-response,63,2078579,0.0-65.0,NULL,img/app11.png,68,NULL,NULL,NULL,NULL,NULL
NULL,5807,image-keyboard-response,64,2084388,0.0-66.0,NULL,img/app12.png,68,NULL,NULL,NULL,NULL,NULL
NULL,6284,image-keyboard-response,65,2090673,0.0-67.0,NULL,img/app13.png,68,NULL,NULL,NULL,NULL,NULL
NULL,5328,image-keyboard-response,66,2096002,0.0-68.0,NULL,img/app14.png,68,NULL,NULL,NULL,NULL,NULL
NULL,5344,image-keyboard-response,67,2101346,0.0-69.0,NULL,img/app15.png,75,NULL,NULL,NULL,NULL,NULL
"[{"page_index":0,"viewing_time":1969}]",1969,instructions,68,2103316,0.0-70.0,NULL,NULL,NULL,NULL,NULL,NULL,NULL,NULL
"[{"page_index":0,"viewing_time":48790},{"page_index":1,"viewing_time":18743},{"page_index":2,"viewing_time":9509},{"page_index":3,"viewing_time":4741}]",81783,instructions,69,2185102,0.0-71.0,NULL,NULL,NULL,NULL,NULL,NULL,NULL,NULL
NULL,11326,survey-text,70,2196428,0.0-72.0,"{"Q0":"vlad.nicolescu96@gmail.com"}",NULL,NULL,NULL,NULL,NULL,NULL,NULL
"[{"page_index":0,"viewing_time":1741},{"page_index":1,"viewing_time":12905},{"page_index":2,"viewing_time":1989},{"page_index":3,"viewing_time":1338}]",17974,instructions,0,17976,0.0-0.0,NULL,NULL,NULL,NULL,NULL,NULL,NULL,NULL
NULL,3040,survey-multi-choice,1,21019,0.0-1.0,"{"Q0":"I agree to participate in this research study"}",NULL,NULL,NULL,NULL,NULL,NULL,NULL
"[{"page_index":0,"viewing_time":1207},{"page_index":1,"viewing_time":1442},{"page_index":2,"viewing_time":14045}]",16695,instructions,2,37715,0.0-2.0,NULL,NULL,NULL,NULL,NULL,NULL,NULL,NULL
NULL,16494,survey-likert,3,54211,0.0-3.0,"{"Q0":2,"Q1":2,"Q2":1}",NULL,NULL,NULL,NULL,NULL,NULL,NULL
NULL,30245,survey-likert,4,84457,0.0-4.0,"{"Q0":3,"Q1":3,"Q2":3}",NULL,NULL,NULL,NULL,NULL,NULL,NULL
NULL,15531,survey-likert,5,99991,0.0-5.0,"{"Q0":2,"Q1":2,"Q2":2}",NULL,NULL,NULL,NULL,NULL,NULL,NULL
NULL,15633,survey-likert,6,115624,0.0-6.0,"{"Q0":2,"Q1":2,"Q2":2}",NULL,NULL,NULL,NULL,NULL,NULL,NULL
NULL,23640,survey-likert,7,139265,0.0-7.0,"{"Q0":1,"Q1":3,"Q2":2}",NULL,NULL,NULL,NULL,NULL,NULL,NULL
NULL,30590,survey-likert,8,169856,0.0-8.0,"{"Q0":2,"Q1":2,"Q2":1}",NULL,NULL,NULL,NULL,NULL,NULL,NULL
"[{"page_index":0,"viewing_time":7014}]",7014,instructions,9,176870,0.0-9.0,NULL,NULL,NULL,NULL,NULL,NULL,NULL,NULL
"[{"page_index":0,"viewing_time":4379}]",4380,instructions,10,181250,0.0-10.0,NULL,NULL,NULL,NULL,NULL,NULL,NULL,NULL
NULL,14713,survey-likert,11,195964,0.0-11.0,"{"Q0":1,"Q1":3,"Q2":3}",NULL,NULL,NULL,NULL,NULL,NULL,NULL
NULL,31188,survey-likert,12,227153,0.0-12.0,"{"Q0":4,"Q1":3,"Q2":2}",NULL,NULL,NULL,NULL,NULL,NULL,NULL
NULL,9222,survey-multi-choice,13,236377,0.0-13.0,"{"Q0":"Yes, I solve Sudoku occasionally"}",NULL,NULL,NULL,NULL,NULL,NULL,NULL
NULL,4558,survey-multi-choice,14,240938,0.0-14.0-0.0,"{"Q0":"Average"}",NULL,NULL,NULL,NULL,NULL,NULL,NULL
NULL,4193,survey-multi-choice,15,245134,0.0-15.0,"{"Q0":"Undergraduate degree (e.g., BA)"}",NULL,NULL,NULL,NULL,NULL,NULL,NULL
NULL,6752,survey-text,16,251886,0.0-16.0-0.0,"{"Q0":"Computer Science"}",NULL,NULL,NULL,NULL,NULL,NULL,NULL
NULL,3008,survey-multi-choice,17,254896,0.0-19.0,"{"Q0":"18 - 25 years of age"}",NULL,NULL,NULL,NULL,NULL,NULL,NULL
NULL,3392,survey-text,18,258290,0.0-20.0,"{"Q0":"Male"}",NULL,NULL,NULL,NULL,NULL,NULL,NULL
NULL,13334,survey-multi-choice,19,271626,0.0-21.0,"{"Q0":"Asian/ Pacific Islander"}",NULL,NULL,NULL,NULL,NULL,NULL,NULL
"[{"page_index":0,"viewing_time":62538},{"page_index":1,"viewing_time":30102},{"page_index":2,"viewing_time":10668},{"page_index":3,"viewing_time":4713},{"page_index":2,"viewing_time":13012},{"page_index":3,"viewing_time":20523},{"page_index":4,"viewing_time":3079},{"page_index":5,"viewing_time":1714}]",146349,instructions,20,417975,0.0-22.0-0.0,NULL,NULL,NULL,NULL,NULL,NULL,NULL,NULL
NULL,4372,html-keyboard-response,21,422347,0.0-22.0-1.0,NULL,"Are you ready to solve a practice Sudoku? <br><br> Yes, I am ready! (Press C) <br><br> Not yet, I would like to read the rules once again, please! (Press R)",67,NULL,NULL,NULL,NULL,NULL
"[{"page_index":0,"viewing_time":3903}]",3903,instructions,22,426250,0.0-23.0,NULL,NULL,NULL,NULL,NULL,NULL,NULL,NULL
NULL,12795,survey-likert,23,439047,0.0-24.0,"{"Q0":4}",NULL,NULL,NULL,NULL,NULL,NULL,NULL
"[{"page_index":0,"viewing_time":14652},{"page_index":1,"viewing_time":5265}]",19917,instructions,24,458964,0.0-25.0,NULL,NULL,NULL,NULL,NULL,NULL,NULL,NULL
NULL,19879,image-keyboard-response,25,478844,0.0-26.0,NULL,img/app1.png,68,NULL,NULL,NULL,NULL,NULL
NULL,14073,image-keyboard-response,26,492917,0.0-27.0,NULL,img/app2.png,68,NULL,NULL,NULL,NULL,NULL
NULL,7714,image-keyboard-response,27,500632,0.0-28.0,NULL,img/app3.png,68,NULL,NULL,NULL,NULL,NULL
NULL,26466,image-keyboard-response,28,527098,0.0-29.0,NULL,img/app4.png,68,NULL,NULL,NULL,NULL,NULL
NULL,10159,image-keyboard-response,29,537258,0.0-30.0,NULL,img/app5.png,75,NULL,NULL,NULL,NULL,NULL
"[{"page_index":0,"viewing_time":4374},{"page_index":1,"viewing_time":9494},{"page_index":2,"viewing_time":2828}]",16697,instructions,30,553955,0.0-31.0,NULL,NULL,NULL,NULL,NULL,NULL,NULL,NULL
NULL,NULL,sudoku_trial,31,620044,0.0-32.0,NULL,NULL,NULL,66086,boards2x3,a,1,1
"[{"page_index":0,"viewing_time":2732},{"page_index":1,"viewing_time":3059}]",5792,instructions,32,625836,0.0-33.0,NULL,NULL,NULL,NULL,NULL,NULL,NULL,NULL
NULL,33253,survey-likert,33,659090,0.0-34.0,"{"Q0":2,"Q1":6,"Q2":6}",NULL,NULL,NULL,NULL,NULL,NULL,NULL
NULL,18448,survey-likert,34,677539,0.0-35.0,"{"Q0":6,"Q1":1,"Q2":4}",NULL,NULL,NULL,NULL,NULL,NULL,NULL
NULL,34704,survey-likert,35,712245,0.0-36.0,"{"Q0":7,"Q1":1,"Q2":1,"Q3":1}",NULL,NULL,NULL,NULL,NULL,NULL,NULL
"[{"page_index":0,"viewing_time":6330}]",6330,instructions,36,718575,0.0-37.0,NULL,NULL,NULL,NULL,NULL,NULL,NULL,NULL
NULL,32433,survey-likert,37,751009,0.0-38.0,"{"Q0":3,"Q1":5,"Q2":2}",NULL,NULL,NULL,NULL,NULL,NULL,NULL
NULL,23222,survey-likert,38,774233,0.0-39.0,"{"Q0":5,"Q1":6,"Q2":6}",NULL,NULL,NULL,NULL,NULL,NULL,NULL
"[{"page_index":0,"viewing_time":5084}]",5084,instructions,39,779317,0.0-40.0,NULL,NULL,NULL,NULL,NULL,NULL,NULL,NULL
NULL,9725,survey-likert,40,789043,0.0-41.0,"{"Q0":4}",NULL,NULL,NULL,NULL,NULL,NULL,NULL
"[{"page_index":0,"viewing_time":2417},{"page_index":1,"viewing_time":1654}]",4071,instructions,41,793115,0.0-42.0,NULL,NULL,NULL,NULL,NULL,NULL,NULL,NULL
NULL,17876,image-keyboard-response,42,810992,0.0-43.0,NULL,img/app6.png,68,NULL,NULL,NULL,NULL,NULL
NULL,21344,image-keyboard-response,43,832337,0.0-44.0,NULL,img/app7.png,68,NULL,NULL,NULL,NULL,NULL
NULL,13836,image-keyboard-response,44,846174,0.0-45.0,NULL,img/app8.png,68,NULL,NULL,NULL,NULL,NULL
NULL,18728,image-keyboard-response,45,864902,0.0-46.0,NULL,img/app9.png,75,NULL,NULL,NULL,NULL,NULL
NULL,12053,image-keyboard-response,46,876956,0.0-47.0,NULL,img/app10.png,68,NULL,NULL,NULL,NULL,NULL
"[{"page_index":0,"viewing_time":8326}]",8327,instructions,47,885283,0.0-48.0,NULL,NULL,NULL,NULL,NULL,NULL,NULL,NULL
NULL,NULL,sudoku_trial,48,954546,0.0-49.0,NULL,NULL,NULL,69262,boards2x3,c,1,1
NULL,NULL,sudoku_trial,49,1005828,0.0-50.0,NULL,NULL,NULL,51281,boards2x3,b,2,1
NULL,NULL,sudoku_trial,50,1067214,0.0-51.0,NULL,NULL,NULL,61385,boards2x3,c,3,1
NULL,NULL,sudoku_trial,51,1120790,0.0-52.0,NULL,NULL,NULL,53575,boards2x3,b,0,1
NULL,NULL,sudoku_trial,52,1175775,0.0-53.0,NULL,NULL,NULL,54983,boards2x3,b,4,1
NULL,NULL,sudoku_trial,53,1241555,0.0-54.0,NULL,NULL,NULL,65778,boards2x3,a,3,1
"[{"page_index":0,"viewing_time":9436},{"page_index":1,"viewing_time":2093}]",11530,instructions,54,1253085,0.0-55.0,NULL,NULL,NULL,NULL,NULL,NULL,NULL,NULL
NULL,24050,survey-likert,55,1277137,0.0-56.0,"{"Q0":3,"Q1":4,"Q2":6}",NULL,NULL,NULL,NULL,NULL,NULL,NULL
NULL,13480,survey-likert,56,1290619,0.0-57.0,"{"Q0":5,"Q1":0,"Q2":3}",NULL,NULL,NULL,NULL,NULL,NULL,NULL
NULL,12274,survey-likert,57,1302894,0.0-58.0,"{"Q0":6,"Q1":0,"Q2":0,"Q3":1}",NULL,NULL,NULL,NULL,NULL,NULL,NULL
"[{"page_index":0,"viewing_time":8061}]",8061,instructions,58,1310955,0.0-59.0,NULL,NULL,NULL,NULL,NULL,NULL,NULL,NULL
NULL,19329,survey-likert,59,1330284,0.0-60.0,"{"Q0":4,"Q1":6,"Q2":2}",NULL,NULL,NULL,NULL,NULL,NULL,NULL
NULL,14723,survey-likert,60,1345009,0.0-61.0,"{"Q0":5,"Q1":6,"Q2":6}",NULL,NULL,NULL,NULL,NULL,NULL,NULL
"[{"page_index":0,"viewing_time":4791}]",4792,instructions,61,1349802,0.0-62.0,NULL,NULL,NULL,NULL,NULL,NULL,NULL,NULL
NULL,4743,survey-likert,62,1354547,0.0-63.0,"{"Q0":4}",NULL,NULL,NULL,NULL,NULL,NULL,NULL
"[{"page_index":0,"viewing_time":1197},{"page_index":1,"viewing_time":2131}]",3329,instructions,63,1357876,0.0-64.0,NULL,NULL,NULL,NULL,NULL,NULL,NULL,NULL
NULL,8213,image-keyboard-response,64,1366089,0.0-65.0,NULL,img/app11.png,68,NULL,NULL,NULL,NULL,NULL
NULL,2492,image-keyboard-response,65,1368582,0.0-66.0,NULL,img/app12.png,68,NULL,NULL,NULL,NULL,NULL
NULL,1951,image-keyboard-response,66,1370533,0.0-67.0,NULL,img/app13.png,68,NULL,NULL,NULL,NULL,NULL
NULL,6620,image-keyboard-response,67,1377155,0.0-68.0,NULL,img/app14.png,68,NULL,NULL,NULL,NULL,NULL
NULL,2678,image-keyboard-response,68,1379834,0.0-69.0,NULL,img/app15.png,75,NULL,NULL,NULL,NULL,NULL
"[{"page_index":0,"viewing_time":4264}]",4264,instructions,69,1384098,0.0-70.0,NULL,NULL,NULL,NULL,NULL,NULL,NULL,NULL
"[{"page_index":0,"viewing_time":22566},{"page_index":1,"viewing_time":8467},{"page_index":0,"viewing_time":1204},{"page_index":1,"viewing_time":964},{"page_index":2,"viewing_time":3347},{"page_index":3,"viewing_time":2848}]",39397,instructions,70,1423495,0.0-71.0,NULL,NULL,NULL,NULL,NULL,NULL,NULL,NULL
NULL,10626,survey-text,71,1434122,0.0-72.0,"{"Q0":"Yes"}",NULL,NULL,NULL,NULL,NULL,NULL,NULL
