view_history,rt,trial_type,trial_index,time_elapsed,internal_node_id,responses,stimulus,key_press,success_time,board_size,board_set,board_no,success
"[{"page_index":0,"viewing_time":4155},{"page_index":1,"viewing_time":1833},{"page_index":2,"viewing_time":804},{"page_index":3,"viewing_time":1190}]",7983,instructions,0,7987,0.0-0.0,NULL,NULL,NULL,NULL,NULL,NULL,NULL,NULL
NULL,3621,survey-multi-choice,1,11613,0.0-1.0,"{"Q0":"I agree to participate in this research study"}",NULL,NULL,NULL,NULL,NULL,NULL,NULL
"[{"page_index":0,"viewing_time":887},{"page_index":1,"viewing_time":1187},{"page_index":2,"viewing_time":822}]",2897,instructions,2,14511,0.0-2.0,NULL,NULL,NULL,NULL,NULL,NULL,NULL,NULL
NULL,27396,survey-likert,3,41909,0.0-3.0,"{"Q0":2,"Q1":2,"Q2":1}",NULL,NULL,NULL,NULL,NULL,NULL,NULL
NULL,29946,survey-likert,4,71857,0.0-4.0,"{"Q0":1,"Q1":2,"Q2":3}",NULL,NULL,NULL,NULL,NULL,NULL,NULL
NULL,16156,survey-likert,5,88015,0.0-5.0,"{"Q0":3,"Q1":3,"Q2":3}",NULL,NULL,NULL,NULL,NULL,NULL,NULL
NULL,16241,survey-likert,6,104257,0.0-6.0,"{"Q0":3,"Q1":0,"Q2":2}",NULL,NULL,NULL,NULL,NULL,NULL,NULL
NULL,17093,survey-likert,7,121352,0.0-7.0,"{"Q0":0,"Q1":3,"Q2":1}",NULL,NULL,NULL,NULL,NULL,NULL,NULL
NULL,65426,survey-likert,8,186780,0.0-8.0,"{"Q0":3,"Q1":2,"Q2":0}",NULL,NULL,NULL,NULL,NULL,NULL,NULL
"[{"page_index":0,"viewing_time":1458}]",1458,instructions,9,188238,0.0-9.0,NULL,NULL,NULL,NULL,NULL,NULL,NULL,NULL
"[{"page_index":0,"viewing_time":929}]",930,instructions,10,189168,0.0-10.0,NULL,NULL,NULL,NULL,NULL,NULL,NULL,NULL
NULL,12266,survey-likert,11,201435,0.0-11.0,"{"Q0":4,"Q1":4,"Q2":4}",NULL,NULL,NULL,NULL,NULL,NULL,NULL
NULL,12015,survey-likert,12,213450,0.0-12.0,"{"Q0":4,"Q1":4,"Q2":4}",NULL,NULL,NULL,NULL,NULL,NULL,NULL
NULL,6290,survey-multi-choice,13,219743,0.0-13.0,"{"Q0":"Yes, I solved Sudoku once or twice"}",NULL,NULL,NULL,NULL,NULL,NULL,NULL
NULL,5007,survey-multi-choice,14,224753,0.0-15.0,"{"Q0":"Undergraduate degree (e.g., BA)"}",NULL,NULL,NULL,NULL,NULL,NULL,NULL
NULL,8768,survey-text,15,233522,0.0-16.0-0.0,"{"Q0":"Mathematics"}",NULL,NULL,NULL,NULL,NULL,NULL,NULL
NULL,3193,survey-multi-choice,16,236718,0.0-19.0,"{"Q0":"18 - 25 years of age"}",NULL,NULL,NULL,NULL,NULL,NULL,NULL
NULL,3922,survey-text,17,240641,0.0-20.0,"{"Q0":"Male"}",NULL,NULL,NULL,NULL,NULL,NULL,NULL
NULL,54545,survey-multi-choice,18,295194,0.0-21.0,"{"Q0":"White"}",NULL,NULL,NULL,NULL,NULL,NULL,NULL
"[{"page_index":0,"viewing_time":1512},{"page_index":1,"viewing_time":29545},{"page_index":2,"viewing_time":12465},{"page_index":3,"viewing_time":6879},{"page_index":4,"viewing_time":23351},{"page_index":5,"viewing_time":11443}]",85196,instructions,19,380391,0.0-22.0-0.0,NULL,NULL,NULL,NULL,NULL,NULL,NULL,NULL
NULL,3697,html-keyboard-response,20,384092,0.0-22.0-1.0,NULL,"Are you ready to solve a practice Sudoku? <br><br> Yes, I am ready! (Press C) <br><br> Not yet, I would like to read the rules once again, please! (Press R)",67,NULL,NULL,NULL,NULL,NULL
"[{"page_index":0,"viewing_time":2567}]",2567,instructions,21,386660,0.0-23.0,NULL,NULL,NULL,NULL,NULL,NULL,NULL,NULL
NULL,12764,survey-likert,22,399427,0.0-24.0,"{"Q0":3}",NULL,NULL,NULL,NULL,NULL,NULL,NULL
"[{"page_index":0,"viewing_time":9173},{"page_index":1,"viewing_time":3202}]",12376,instructions,23,411803,0.0-25.0,NULL,NULL,NULL,NULL,NULL,NULL,NULL,NULL
NULL,12459,image-keyboard-response,24,424265,0.0-26.0,NULL,img/app1.png,68,NULL,NULL,NULL,NULL,NULL
NULL,28356,image-keyboard-response,25,452621,0.0-27.0,NULL,img/app2.png,75,NULL,NULL,NULL,NULL,NULL
NULL,27671,image-keyboard-response,26,480294,0.0-28.0,NULL,img/app3.png,75,NULL,NULL,NULL,NULL,NULL
NULL,46689,image-keyboard-response,27,526986,0.0-29.0,NULL,img/app4.png,75,NULL,NULL,NULL,NULL,NULL
NULL,26595,image-keyboard-response,28,553583,0.0-30.0,NULL,img/app5.png,75,NULL,NULL,NULL,NULL,NULL
"[{"page_index":0,"viewing_time":2714},{"page_index":1,"viewing_time":1522},{"page_index":2,"viewing_time":691}]",4927,instructions,29,558510,0.0-31.0,NULL,NULL,NULL,NULL,NULL,NULL,NULL,NULL
NULL,NULL,sudoku_trial,30,680831,0.0-32.0,NULL,NULL,NULL,NULL,boards2x3,a,1,
"[{"page_index":0,"viewing_time":1115},{"page_index":1,"viewing_time":975}]",2091,instructions,31,682923,0.0-33.0,NULL,NULL,NULL,NULL,NULL,NULL,NULL,NULL
NULL,22371,survey-likert,32,705298,0.0-34.0,"{"Q0":5,"Q1":0,"Q2":4}",NULL,NULL,NULL,NULL,NULL,NULL,NULL
NULL,9184,survey-likert,33,714483,0.0-35.0,"{"Q0":4,"Q1":0,"Q2":0}",NULL,NULL,NULL,NULL,NULL,NULL,NULL
NULL,13115,survey-likert,34,727600,0.0-36.0,"{"Q0":6,"Q1":0,"Q2":0,"Q3":0}",NULL,NULL,NULL,NULL,NULL,NULL,NULL
"[{"page_index":0,"viewing_time":1132}]",1133,instructions,35,728733,0.0-37.0,NULL,NULL,NULL,NULL,NULL,NULL,NULL,NULL
NULL,25211,survey-likert,36,753946,0.0-38.0,"{"Q0":8,"Q1":5,"Q2":0}",NULL,NULL,NULL,NULL,NULL,NULL,NULL
NULL,18529,survey-likert,37,772477,0.0-39.0,"{"Q0":8,"Q1":8,"Q2":6}",NULL,NULL,NULL,NULL,NULL,NULL,NULL
"[{"page_index":0,"viewing_time":1217}]",1217,instructions,38,773695,0.0-40.0,NULL,NULL,NULL,NULL,NULL,NULL,NULL,NULL
NULL,4585,survey-likert,39,778283,0.0-41.0,"{"Q0":4}",NULL,NULL,NULL,NULL,NULL,NULL,NULL
"[{"page_index":0,"viewing_time":892},{"page_index":1,"viewing_time":1372}]",2265,instructions,40,780548,0.0-42.0,NULL,NULL,NULL,NULL,NULL,NULL,NULL,NULL
NULL,-1,image-keyboard-response,41,900559,0.0-43.0,NULL,img/app6.png,-1,NULL,NULL,NULL,NULL,NULL
NULL,-1,image-keyboard-response,42,1020572,0.0-44.0,NULL,img/app7.png,-1,NULL,NULL,NULL,NULL,NULL
NULL,-1,image-keyboard-response,43,1140586,0.0-45.0,NULL,img/app8.png,-1,NULL,NULL,NULL,NULL,NULL
NULL,-1,image-keyboard-response,44,1260596,0.0-46.0,NULL,img/app9.png,-1,NULL,NULL,NULL,NULL,NULL
NULL,-1,image-keyboard-response,45,1380611,0.0-47.0,NULL,img/app10.png,-1,NULL,NULL,NULL,NULL,NULL
"[{"page_index":0,"viewing_time":76126}]",76127,instructions,46,1456740,0.0-48.0,NULL,NULL,NULL,NULL,NULL,NULL,NULL,NULL
NULL,NULL,sudoku_trial,47,1564739,0.0-49.0,NULL,NULL,NULL,107995,boards2x3,c,3,1
NULL,NULL,sudoku_trial,48,1664861,0.0-50.0,NULL,NULL,NULL,100120,boards2x3,c,1,1
NULL,NULL,sudoku_trial,49,1729843,0.0-51.0,NULL,NULL,NULL,64980,boards2x3,b,4,1
NULL,NULL,sudoku_trial,50,1793930,0.0-52.0,NULL,NULL,NULL,64084,boards2x3,b,2,1
NULL,NULL,sudoku_trial,51,1899737,0.0-53.0,NULL,NULL,NULL,105805,boards2x3,b,0,1
NULL,NULL,sudoku_trial,52,1999719,0.0-54.0,NULL,NULL,NULL,99978,boards2x3,a,3,1
"[{"page_index":0,"viewing_time":1291},{"page_index":1,"viewing_time":916}]",2209,instructions,53,2001928,0.0-55.0,NULL,NULL,NULL,NULL,NULL,NULL,NULL,NULL
NULL,6933,survey-likert,54,2008863,0.0-56.0,"{"Q0":2,"Q1":0,"Q2":7}",NULL,NULL,NULL,NULL,NULL,NULL,NULL
NULL,13840,survey-likert,55,2022705,0.0-57.0,"{"Q0":8,"Q1":0,"Q2":0}",NULL,NULL,NULL,NULL,NULL,NULL,NULL
NULL,13591,survey-likert,56,2036297,0.0-58.0,"{"Q0":6,"Q1":0,"Q2":2,"Q3":0}",NULL,NULL,NULL,NULL,NULL,NULL,NULL
"[{"page_index":0,"viewing_time":3337}]",3337,instructions,57,2039634,0.0-59.0,NULL,NULL,NULL,NULL,NULL,NULL,NULL,NULL
NULL,21454,survey-likert,58,2061090,0.0-60.0,"{"Q0":2,"Q1":5,"Q2":0}",NULL,NULL,NULL,NULL,NULL,NULL,NULL
NULL,12208,survey-likert,59,2073299,0.0-61.0,"{"Q0":3,"Q1":8,"Q2":8}",NULL,NULL,NULL,NULL,NULL,NULL,NULL
"[{"page_index":0,"viewing_time":1042}]",1042,instructions,60,2074341,0.0-62.0,NULL,NULL,NULL,NULL,NULL,NULL,NULL,NULL
NULL,22411,survey-likert,61,2096755,0.0-63.0,"{"Q0":""}",NULL,NULL,NULL,NULL,NULL,NULL,NULL
"[{"page_index":0,"viewing_time":1335},{"page_index":1,"viewing_time":1552}]",2887,instructions,62,2099642,0.0-64.0,NULL,NULL,NULL,NULL,NULL,NULL,NULL,NULL
NULL,1471,image-keyboard-response,63,2101114,0.0-65.0,NULL,img/app11.png,68,NULL,NULL,NULL,NULL,NULL
NULL,147,image-keyboard-response,64,2101263,0.0-66.0,NULL,img/app12.png,68,NULL,NULL,NULL,NULL,NULL
NULL,125,image-keyboard-response,65,2101389,0.0-67.0,NULL,img/app13.png,68,NULL,NULL,NULL,NULL,NULL
NULL,113,image-keyboard-response,66,2101504,0.0-68.0,NULL,img/app14.png,68,NULL,NULL,NULL,NULL,NULL
NULL,132,image-keyboard-response,67,2101637,0.0-69.0,NULL,img/app15.png,68,NULL,NULL,NULL,NULL,NULL
"[{"page_index":0,"viewing_time":1782}]",1783,instructions,68,2103420,0.0-70.0,NULL,NULL,NULL,NULL,NULL,NULL,NULL,NULL
"[{"page_index":0,"viewing_time":3907},{"page_index":1,"viewing_time":3828},{"page_index":2,"viewing_time":1583},{"page_index":3,"viewing_time":426}]",9745,instructions,69,2113167,0.0-71.0,NULL,NULL,NULL,NULL,NULL,NULL,NULL,NULL
NULL,5035,survey-text,70,2118205,0.0-72.0,"{"Q0":""}",NULL,NULL,NULL,NULL,NULL,NULL,NULL
"[{"page_index":0,"viewing_time":5122},{"page_index":1,"viewing_time":12000},{"page_index":2,"viewing_time":11868},{"page_index":3,"viewing_time":7050}]",36041,instructions,0,36041,0.0-0.0,NULL,NULL,NULL,NULL,NULL,NULL,NULL,NULL
NULL,15875,survey-multi-choice,1,51920,0.0-1.0,"{"Q0":"I agree to participate in this research study"}",NULL,NULL,NULL,NULL,NULL,NULL,NULL
"[{"page_index":0,"viewing_time":12889},{"page_index":1,"viewing_time":5912},{"page_index":2,"viewing_time":10625}]",29427,instructions,2,81347,0.0-2.0,NULL,NULL,NULL,NULL,NULL,NULL,NULL,NULL
NULL,10535,survey-likert,3,91885,0.0-3.0,"{"Q0":2,"Q1":2,"Q2":2}",NULL,NULL,NULL,NULL,NULL,NULL,NULL
NULL,13933,survey-likert,4,105818,0.0-4.0,"{"Q0":3,"Q1":2,"Q2":3}",NULL,NULL,NULL,NULL,NULL,NULL,NULL
NULL,8984,survey-likert,5,114804,0.0-5.0,"{"Q0":3,"Q1":2,"Q2":2}",NULL,NULL,NULL,NULL,NULL,NULL,NULL
NULL,14748,survey-likert,6,129552,0.0-6.0,"{"Q0":2,"Q1":1,"Q2":0}",NULL,NULL,NULL,NULL,NULL,NULL,NULL
NULL,9298,survey-likert,7,138851,0.0-7.0,"{"Q0":1,"Q1":2,"Q2":0}",NULL,NULL,NULL,NULL,NULL,NULL,NULL
NULL,14560,survey-likert,8,153413,0.0-8.0,"{"Q0":3,"Q1":2,"Q2":0}",NULL,NULL,NULL,NULL,NULL,NULL,NULL
"[{"page_index":0,"viewing_time":6079}]",6080,instructions,9,159493,0.0-9.0,NULL,NULL,NULL,NULL,NULL,NULL,NULL,NULL
"[{"page_index":0,"viewing_time":3634}]",3634,instructions,10,163127,0.0-10.0,NULL,NULL,NULL,NULL,NULL,NULL,NULL,NULL
NULL,16091,survey-likert,11,179221,0.0-11.0,"{"Q0":2,"Q1":3,"Q2":1}",NULL,NULL,NULL,NULL,NULL,NULL,NULL
NULL,13207,survey-likert,12,192428,0.0-12.0,"{"Q0":3,"Q1":2,"Q2":2}",NULL,NULL,NULL,NULL,NULL,NULL,NULL
NULL,5321,survey-multi-choice,13,197751,0.0-13.0,"{"Q0":"Yes, I solved Sudoku once or twice"}",NULL,NULL,NULL,NULL,NULL,NULL,NULL
NULL,4731,survey-multi-choice,14,202485,0.0-15.0,"{"Q0":"Undergraduate degree (e.g., BA)"}",NULL,NULL,NULL,NULL,NULL,NULL,NULL
NULL,7751,survey-text,15,210237,0.0-16.0-0.0,"{"Q0":"Computer Science"}",NULL,NULL,NULL,NULL,NULL,NULL,NULL
NULL,2853,survey-multi-choice,16,213093,0.0-19.0,"{"Q0":"18 - 25 years of age"}",NULL,NULL,NULL,NULL,NULL,NULL,NULL
NULL,3669,survey-text,17,216763,0.0-20.0,"{"Q0":"Male"}",NULL,NULL,NULL,NULL,NULL,NULL,NULL
NULL,9810,survey-multi-choice,18,226576,0.0-21.0,"{"Q0":"Asian/ Pacific Islander"}",NULL,NULL,NULL,NULL,NULL,NULL,NULL
"[{"page_index":0,"viewing_time":12120},{"page_index":1,"viewing_time":24559},{"page_index":2,"viewing_time":12565},{"page_index":3,"viewing_time":7760},{"page_index":4,"viewing_time":7177},{"page_index":5,"viewing_time":8724}]",72905,instructions,19,299483,0.0-22.0-0.0,NULL,NULL,NULL,NULL,NULL,NULL,NULL,NULL
NULL,3104,html-keyboard-response,20,302587,0.0-22.0-1.0,NULL,"Are you ready to solve a practice Sudoku? <br><br> Yes, I am ready! (Press C) <br><br> Not yet, I would like to read the rules once again, please! (Press R)",67,NULL,NULL,NULL,NULL,NULL
"[{"page_index":0,"viewing_time":3372}]",3375,instructions,21,305962,0.0-23.0,NULL,NULL,NULL,NULL,NULL,NULL,NULL,NULL
NULL,7212,survey-likert,22,313175,0.0-24.0,"{"Q0":7}",NULL,NULL,NULL,NULL,NULL,NULL,NULL
"[{"page_index":0,"viewing_time":21588},{"page_index":1,"viewing_time":6317}]",27905,instructions,23,341080,0.0-25.0,NULL,NULL,NULL,NULL,NULL,NULL,NULL,NULL
NULL,2918,image-keyboard-response,24,343998,0.0-26.0,NULL,img/app1.png,68,NULL,NULL,NULL,NULL,NULL
NULL,2903,image-keyboard-response,25,346901,0.0-27.0,NULL,img/app2.png,68,NULL,NULL,NULL,NULL,NULL
NULL,3435,image-keyboard-response,26,350336,0.0-28.0,NULL,img/app3.png,68,NULL,NULL,NULL,NULL,NULL
NULL,5183,image-keyboard-response,27,355520,0.0-29.0,NULL,img/app4.png,68,NULL,NULL,NULL,NULL,NULL
NULL,4045,image-keyboard-response,28,359565,0.0-30.0,NULL,img/app5.png,75,NULL,NULL,NULL,NULL,NULL
"[{"page_index":0,"viewing_time":2564},{"page_index":1,"viewing_time":7619},{"page_index":2,"viewing_time":6582}]",16765,instructions,29,376330,0.0-31.0,NULL,NULL,NULL,NULL,NULL,NULL,NULL,NULL
NULL,NULL,sudoku_trial,30,431411,0.0-32.0,NULL,NULL,NULL,55077,boards2x3,a,1,1
"[{"page_index":0,"viewing_time":1873},{"page_index":1,"viewing_time":10312}]",12185,instructions,31,443596,0.0-33.0,NULL,NULL,NULL,NULL,NULL,NULL,NULL,NULL
NULL,19473,survey-likert,32,463072,0.0-34.0,"{"Q0":3,"Q1":6,"Q2":7}",NULL,NULL,NULL,NULL,NULL,NULL,NULL
NULL,11410,survey-likert,33,474483,0.0-35.0,"{"Q0":5,"Q1":0,"Q2":5}",NULL,NULL,NULL,NULL,NULL,NULL,NULL
NULL,11506,survey-likert,34,485991,0.0-36.0,"{"Q0":6,"Q1":1,"Q2":1,"Q3":0}",NULL,NULL,NULL,NULL,NULL,NULL,NULL
"[{"page_index":0,"viewing_time":6489}]",6489,instructions,35,492480,0.0-37.0,NULL,NULL,NULL,NULL,NULL,NULL,NULL,NULL
NULL,13753,survey-likert,36,506235,0.0-38.0,"{"Q0":6,"Q1":3,"Q2":5}",NULL,NULL,NULL,NULL,NULL,NULL,NULL
NULL,24508,survey-likert,37,530745,0.0-39.0,"{"Q0":4,"Q1":5,"Q2":5}",NULL,NULL,NULL,NULL,NULL,NULL,NULL
"[{"page_index":0,"viewing_time":2465}]",2466,instructions,38,533211,0.0-40.0,NULL,NULL,NULL,NULL,NULL,NULL,NULL,NULL
NULL,5251,survey-likert,39,538463,0.0-41.0,"{"Q0":7}",NULL,NULL,NULL,NULL,NULL,NULL,NULL
"[{"page_index":0,"viewing_time":3132},{"page_index":1,"viewing_time":1741},{"page_index":0,"viewing_time":10162},{"page_index":1,"viewing_time":2131}]",17166,instructions,40,555629,0.0-42.0,NULL,NULL,NULL,NULL,NULL,NULL,NULL,NULL
NULL,4047,image-keyboard-response,41,559677,0.0-43.0,NULL,img/app6.png,68,NULL,NULL,NULL,NULL,NULL
NULL,1114,image-keyboard-response,42,560792,0.0-44.0,NULL,img/app7.png,68,NULL,NULL,NULL,NULL,NULL
NULL,3570,image-keyboard-response,43,564363,0.0-45.0,NULL,img/app8.png,68,NULL,NULL,NULL,NULL,NULL
NULL,2635,image-keyboard-response,44,566999,0.0-46.0,NULL,img/app9.png,68,NULL,NULL,NULL,NULL,NULL
NULL,1643,image-keyboard-response,45,568642,0.0-47.0,NULL,img/app10.png,68,NULL,NULL,NULL,NULL,NULL
"[{"page_index":0,"viewing_time":2233}]",2233,instructions,46,570875,0.0-48.0,NULL,NULL,NULL,NULL,NULL,NULL,NULL,NULL
NULL,NULL,sudoku_trial,47,638181,0.0-49.0,NULL,NULL,NULL,67305,boards2x3,b,0,1
NULL,NULL,sudoku_trial,48,693932,0.0-50.0,NULL,NULL,NULL,55749,boards2x3,b,4,1
NULL,NULL,sudoku_trial,49,748361,0.0-51.0,NULL,NULL,NULL,54428,boards2x3,b,2,1
NULL,NULL,sudoku_trial,50,813009,0.0-52.0,NULL,NULL,NULL,64647,boards2x3,c,3,1
NULL,NULL,sudoku_trial,51,868709,0.0-53.0,NULL,NULL,NULL,55698,boards2x3,c,1,1
NULL,NULL,sudoku_trial,52,924309,0.0-54.0,NULL,NULL,NULL,55599,boards2x3,a,3,1
"[{"page_index":0,"viewing_time":4265},{"page_index":1,"viewing_time":2795}]",7060,instructions,53,931369,0.0-55.0,NULL,NULL,NULL,NULL,NULL,NULL,NULL,NULL
NULL,13264,survey-likert,54,944634,0.0-56.0,"{"Q0":3,"Q1":5,"Q2":6}",NULL,NULL,NULL,NULL,NULL,NULL,NULL
NULL,6226,survey-likert,55,950860,0.0-57.0,"{"Q0":6,"Q1":0,"Q2":1}",NULL,NULL,NULL,NULL,NULL,NULL,NULL
NULL,12368,survey-likert,56,963231,0.0-58.0,"{"Q0":4,"Q1":0,"Q2":3,"Q3":0}",NULL,NULL,NULL,NULL,NULL,NULL,NULL
"[{"page_index":0,"viewing_time":1726}]",1726,instructions,57,964957,0.0-59.0,NULL,NULL,NULL,NULL,NULL,NULL,NULL,NULL
NULL,16512,survey-likert,58,981471,0.0-60.0,"{"Q0":5,"Q1":4,"Q2":1}",NULL,NULL,NULL,NULL,NULL,NULL,NULL
NULL,12689,survey-likert,59,994162,0.0-61.0,"{"Q0":4,"Q1":4,"Q2":4}",NULL,NULL,NULL,NULL,NULL,NULL,NULL
"[{"page_index":0,"viewing_time":4198}]",4198,instructions,60,998360,0.0-62.0,NULL,NULL,NULL,NULL,NULL,NULL,NULL,NULL
NULL,4406,survey-likert,61,1002767,0.0-63.0,"{"Q0":7}",NULL,NULL,NULL,NULL,NULL,NULL,NULL
"[{"page_index":0,"viewing_time":1944},{"page_index":1,"viewing_time":1822}]",3768,instructions,62,1006536,0.0-64.0,NULL,NULL,NULL,NULL,NULL,NULL,NULL,NULL
NULL,3601,image-keyboard-response,63,1010137,0.0-65.0,NULL,img/app11.png,68,NULL,NULL,NULL,NULL,NULL
NULL,1281,image-keyboard-response,64,1011418,0.0-66.0,NULL,img/app12.png,68,NULL,NULL,NULL,NULL,NULL
NULL,2725,image-keyboard-response,65,1014143,0.0-67.0,NULL,img/app13.png,68,NULL,NULL,NULL,NULL,NULL
NULL,2901,image-keyboard-response,66,1017044,0.0-68.0,NULL,img/app14.png,68,NULL,NULL,NULL,NULL,NULL
NULL,11900,image-keyboard-response,67,1028944,0.0-69.0,NULL,img/app15.png,75,NULL,NULL,NULL,NULL,NULL
"[{"page_index":0,"viewing_time":2346}]",2347,instructions,68,1031291,0.0-70.0,NULL,NULL,NULL,NULL,NULL,NULL,NULL,NULL
"[{"page_index":0,"viewing_time":17125},{"page_index":1,"viewing_time":16067},{"page_index":2,"viewing_time":7340},{"page_index":3,"viewing_time":10727}]",51260,instructions,69,1082551,0.0-71.0,NULL,NULL,NULL,NULL,NULL,NULL,NULL,NULL
NULL,10423,survey-text,70,1092975,0.0-72.0,"{"Q0":"saunved@gmail.com"}",NULL,NULL,NULL,NULL,NULL,NULL,NULL
"[{"page_index":0,"viewing_time":5030},{"page_index":1,"viewing_time":4952},{"page_index":2,"viewing_time":1934},{"page_index":3,"viewing_time":2357}]",14274,instructions,0,14275,0.0-0.0,NULL,NULL,NULL,NULL,NULL,NULL,NULL,NULL
NULL,10938,survey-multi-choice,1,25216,0.0-1.0,"{"Q0":"I agree to participate in this research study"}",NULL,NULL,NULL,NULL,NULL,NULL,NULL
"[{"page_index":0,"viewing_time":2916},{"page_index":1,"viewing_time":2059},{"page_index":0,"viewing_time":12126},{"page_index":1,"viewing_time":1510},{"page_index":2,"viewing_time":14347}]",32958,instructions,2,58174,0.0-2.0,NULL,NULL,NULL,NULL,NULL,NULL,NULL,NULL
NULL,37377,survey-likert,3,95553,0.0-3.0,"{"Q0":2,"Q1":2,"Q2":2}",NULL,NULL,NULL,NULL,NULL,NULL,NULL
NULL,19684,survey-likert,4,115238,0.0-4.0,"{"Q0":2,"Q1":2,"Q2":2}",NULL,NULL,NULL,NULL,NULL,NULL,NULL
NULL,15569,survey-likert,5,130807,0.0-5.0,"{"Q0":2,"Q1":1,"Q2":2}",NULL,NULL,NULL,NULL,NULL,NULL,NULL
NULL,17379,survey-likert,6,148186,0.0-6.0,"{"Q0":2,"Q1":1,"Q2":1}",NULL,NULL,NULL,NULL,NULL,NULL,NULL
NULL,18214,survey-likert,7,166402,0.0-7.0,"{"Q0":0,"Q1":2,"Q2":1}",NULL,NULL,NULL,NULL,NULL,NULL,NULL
NULL,27859,survey-likert,8,194262,0.0-8.0,"{"Q0":1,"Q1":2,"Q2":0}",NULL,NULL,NULL,NULL,NULL,NULL,NULL
"[{"page_index":0,"viewing_time":6771}]",6771,instructions,9,201033,0.0-9.0,NULL,NULL,NULL,NULL,NULL,NULL,NULL,NULL
"[{"page_index":0,"viewing_time":3859}]",3859,instructions,10,204892,0.0-10.0,NULL,NULL,NULL,NULL,NULL,NULL,NULL,NULL
NULL,11073,survey-likert,11,215966,0.0-11.0,"{"Q0":3,"Q1":3,"Q2":2}",NULL,NULL,NULL,NULL,NULL,NULL,NULL
NULL,10126,survey-likert,12,226092,0.0-12.0,"{"Q0":3,"Q1":3,"Q2":3}",NULL,NULL,NULL,NULL,NULL,NULL,NULL
NULL,7519,survey-multi-choice,13,233614,0.0-13.0,"{"Q0":"Yes, I solve Sudoku occasionally"}",NULL,NULL,NULL,NULL,NULL,NULL,NULL
NULL,4509,survey-multi-choice,14,238124,0.0-14.0-0.0,"{"Q0":"Average"}",NULL,NULL,NULL,NULL,NULL,NULL,NULL
NULL,9461,survey-multi-choice,15,247587,0.0-15.0,"{"Q0":"Undergraduate degree (e.g., BA)"}",NULL,NULL,NULL,NULL,NULL,NULL,NULL
NULL,10963,survey-text,16,258551,0.0-16.0-0.0,"{"Q0":"Computer Engineering"}",NULL,NULL,NULL,NULL,NULL,NULL,NULL
NULL,4261,survey-multi-choice,17,262814,0.0-19.0,"{"Q0":"18 - 25 years of age"}",NULL,NULL,NULL,NULL,NULL,NULL,NULL
NULL,7850,survey-text,18,270666,0.0-20.0,"{"Q0":"Female"}",NULL,NULL,NULL,NULL,NULL,NULL,NULL
NULL,6818,survey-multi-choice,19,277487,0.0-21.0,"{"Q0":"Asian/ Pacific Islander"}",NULL,NULL,NULL,NULL,NULL,NULL,NULL
"[{"page_index":0,"viewing_time":5653},{"page_index":1,"viewing_time":18718},{"page_index":2,"viewing_time":6662},{"page_index":3,"viewing_time":28699},{"page_index":4,"viewing_time":3282},{"page_index":5,"viewing_time":7300}]",70315,instructions,20,347802,0.0-22.0-0.0,NULL,NULL,NULL,NULL,NULL,NULL,NULL,NULL
NULL,3734,html-keyboard-response,21,351537,0.0-22.0-1.0,NULL,"Are you ready to solve a practice Sudoku? <br><br> Yes, I am ready! (Press C) <br><br> Not yet, I would like to read the rules once again, please! (Press R)",67,NULL,NULL,NULL,NULL,NULL
"[{"page_index":0,"viewing_time":3981}]",3982,instructions,22,355521,0.0-23.0,NULL,NULL,NULL,NULL,NULL,NULL,NULL,NULL
NULL,16050,survey-likert,23,371572,0.0-24.0,"{"Q0":4}",NULL,NULL,NULL,NULL,NULL,NULL,NULL
"[{"page_index":0,"viewing_time":19872},{"page_index":1,"viewing_time":9305}]",29177,instructions,24,400749,0.0-25.0,NULL,NULL,NULL,NULL,NULL,NULL,NULL,NULL
NULL,5040,image-keyboard-response,25,405792,0.0-26.0,NULL,img/app1.png,68,NULL,NULL,NULL,NULL,NULL
NULL,4064,image-keyboard-response,26,409857,0.0-27.0,NULL,img/app2.png,68,NULL,NULL,NULL,NULL,NULL
NULL,5061,image-keyboard-response,27,414919,0.0-28.0,NULL,img/app3.png,68,NULL,NULL,NULL,NULL,NULL
NULL,2973,image-keyboard-response,28,417893,0.0-29.0,NULL,img/app4.png,75,NULL,NULL,NULL,NULL,NULL
NULL,2389,image-keyboard-response,29,420283,0.0-30.0,NULL,img/app5.png,75,NULL,NULL,NULL,NULL,NULL
"[{"page_index":0,"viewing_time":4947},{"page_index":1,"viewing_time":7448},{"page_index":2,"viewing_time":32986}]",45381,instructions,30,465664,0.0-31.0,NULL,NULL,NULL,NULL,NULL,NULL,NULL,NULL
NULL,NULL,sudoku_trial,31,541138,0.0-32.0,NULL,NULL,NULL,75471,boards2x3,a,1,1
"[{"page_index":0,"viewing_time":46655},{"page_index":1,"viewing_time":7178}]",53833,instructions,32,594971,0.0-33.0,NULL,NULL,NULL,NULL,NULL,NULL,NULL,NULL
NULL,18868,survey-likert,33,613840,0.0-34.0,"{"Q0":4,"Q1":3,"Q2":4}",NULL,NULL,NULL,NULL,NULL,NULL,NULL
NULL,18165,survey-likert,34,632006,0.0-35.0,"{"Q0":4,"Q1":0,"Q2":1}",NULL,NULL,NULL,NULL,NULL,NULL,NULL
NULL,18448,survey-likert,35,650456,0.0-36.0,"{"Q0":6,"Q1":4,"Q2":0,"Q3":0}",NULL,NULL,NULL,NULL,NULL,NULL,NULL
"[{"page_index":0,"viewing_time":61676}]",61676,instructions,36,712132,0.0-37.0,NULL,NULL,NULL,NULL,NULL,NULL,NULL,NULL
NULL,22958,survey-likert,37,735095,0.0-38.0,"{"Q0":4,"Q1":4,"Q2":2}",NULL,NULL,NULL,NULL,NULL,NULL,NULL
NULL,12930,survey-likert,38,748025,0.0-39.0,"{"Q0":5,"Q1":5,"Q2":5}",NULL,NULL,NULL,NULL,NULL,NULL,NULL
"[{"page_index":0,"viewing_time":15205}]",15205,instructions,39,763230,0.0-40.0,NULL,NULL,NULL,NULL,NULL,NULL,NULL,NULL
NULL,3600,survey-likert,40,766831,0.0-41.0,"{"Q0":4}",NULL,NULL,NULL,NULL,NULL,NULL,NULL
"[{"page_index":0,"viewing_time":5703},{"page_index":1,"viewing_time":6773}]",12476,instructions,41,779307,0.0-42.0,NULL,NULL,NULL,NULL,NULL,NULL,NULL,NULL
NULL,5960,image-keyboard-response,42,785269,0.0-43.0,NULL,img/app6.png,68,NULL,NULL,NULL,NULL,NULL
NULL,2285,image-keyboard-response,43,787555,0.0-44.0,NULL,img/app7.png,68,NULL,NULL,NULL,NULL,NULL
NULL,2453,image-keyboard-response,44,790010,0.0-45.0,NULL,img/app8.png,68,NULL,NULL,NULL,NULL,NULL
NULL,3107,image-keyboard-response,45,793118,0.0-46.0,NULL,img/app9.png,68,NULL,NULL,NULL,NULL,NULL
NULL,1919,image-keyboard-response,46,795038,0.0-47.0,NULL,img/app10.png,68,NULL,NULL,NULL,NULL,NULL
"[{"page_index":0,"viewing_time":74957}]",74957,instructions,47,869995,0.0-48.0,NULL,NULL,NULL,NULL,NULL,NULL,NULL,NULL
NULL,NULL,sudoku_trial,48,941399,0.0-49.0,NULL,NULL,NULL,71402,boards2x3,b,2,1
NULL,NULL,sudoku_trial,49,1008015,0.0-50.0,NULL,NULL,NULL,66615,boards2x3,b,0,1
NULL,NULL,sudoku_trial,50,1069545,0.0-51.0,NULL,NULL,NULL,61528,boards2x3,c,3,1
NULL,NULL,sudoku_trial,51,1138328,0.0-52.0,NULL,NULL,NULL,68781,boards2x3,b,4,1
NULL,NULL,sudoku_trial,52,1197070,0.0-53.0,NULL,NULL,NULL,58741,boards2x3,a,3,1
NULL,NULL,sudoku_trial,53,1266404,0.0-54.0,NULL,NULL,NULL,69333,boards2x3,c,1,1
"[{"page_index":0,"viewing_time":107353},{"page_index":1,"viewing_time":4512}]",111866,instructions,54,1378270,0.0-55.0,NULL,NULL,NULL,NULL,NULL,NULL,NULL,NULL
NULL,9012,survey-likert,55,1387284,0.0-56.0,"{"Q0":4,"Q1":4,"Q2":2}",NULL,NULL,NULL,NULL,NULL,NULL,NULL
NULL,9784,survey-likert,56,1397070,0.0-57.0,"{"Q0":4,"Q1":0,"Q2":0}",NULL,NULL,NULL,NULL,NULL,NULL,NULL
NULL,14775,survey-likert,57,1411847,0.0-58.0,"{"Q0":4,"Q1":4,"Q2":4,"Q3":0}",NULL,NULL,NULL,NULL,NULL,NULL,NULL
"[{"page_index":0,"viewing_time":32472}]",32472,instructions,58,1444319,0.0-59.0,NULL,NULL,NULL,NULL,NULL,NULL,NULL,NULL
NULL,13956,survey-likert,59,1458276,0.0-60.0,"{"Q0":4,"Q1":4,"Q2":2}",NULL,NULL,NULL,NULL,NULL,NULL,NULL
NULL,8002,survey-likert,60,1466279,0.0-61.0,"{"Q0":4,"Q1":4,"Q2":4}",NULL,NULL,NULL,NULL,NULL,NULL,NULL
"[{"page_index":0,"viewing_time":3307}]",3307,instructions,61,1469587,0.0-62.0,NULL,NULL,NULL,NULL,NULL,NULL,NULL,NULL
NULL,2654,survey-likert,62,1472242,0.0-63.0,"{"Q0":4}",NULL,NULL,NULL,NULL,NULL,NULL,NULL
"[{"page_index":0,"viewing_time":4400},{"page_index":1,"viewing_time":1352}]",5752,instructions,63,1477994,0.0-64.0,NULL,NULL,NULL,NULL,NULL,NULL,NULL,NULL
NULL,1957,image-keyboard-response,64,1479954,0.0-65.0,NULL,img/app11.png,68,NULL,NULL,NULL,NULL,NULL
NULL,1446,image-keyboard-response,65,1481402,0.0-66.0,NULL,img/app12.png,68,NULL,NULL,NULL,NULL,NULL
NULL,635,image-keyboard-response,66,1482037,0.0-67.0,NULL,img/app13.png,68,NULL,NULL,NULL,NULL,NULL
NULL,1989,image-keyboard-response,67,1484029,0.0-68.0,NULL,img/app14.png,68,NULL,NULL,NULL,NULL,NULL
NULL,1016,image-keyboard-response,68,1485047,0.0-69.0,NULL,img/app15.png,68,NULL,NULL,NULL,NULL,NULL
"[{"page_index":0,"viewing_time":3001}]",3001,instructions,69,1488052,0.0-70.0,NULL,NULL,NULL,NULL,NULL,NULL,NULL,NULL
"[{"page_index":0,"viewing_time":31857},{"page_index":1,"viewing_time":10785},{"page_index":2,"viewing_time":95699},{"page_index":3,"viewing_time":41142}]",179484,instructions,70,1667536,0.0-71.0,NULL,NULL,NULL,NULL,NULL,NULL,NULL,NULL
NULL,16574,survey-text,71,1684111,0.0-72.0,"{"Q0":"nsontakke004@gmail.com"}",NULL,NULL,NULL,NULL,NULL,NULL,NULL
"[{"page_index":0,"viewing_time":2086},{"page_index":1,"viewing_time":1345},{"page_index":2,"viewing_time":1309},{"page_index":3,"viewing_time":1453}]",6193,instructions,0,6195,0.0-0.0,NULL,NULL,NULL,NULL,NULL,NULL,NULL,NULL
NULL,4682,survey-multi-choice,1,10884,0.0-1.0,"{"Q0":"I agree to participate in this research study"}",NULL,NULL,NULL,NULL,NULL,NULL,NULL
"[{"page_index":0,"viewing_time":1436},{"page_index":1,"viewing_time":1438},{"page_index":2,"viewing_time":835}]",3709,instructions,2,14594,0.0-2.0,NULL,NULL,NULL,NULL,NULL,NULL,NULL,NULL
NULL,18313,survey-likert,3,32909,0.0-3.0,"{"Q0":3,"Q1":2,"Q2":1}",NULL,NULL,NULL,NULL,NULL,NULL,NULL
NULL,15601,survey-likert,4,48512,0.0-4.0,"{"Q0":3,"Q1":3,"Q2":3}",NULL,NULL,NULL,NULL,NULL,NULL,NULL
NULL,15961,survey-likert,5,64476,0.0-5.0,"{"Q0":2,"Q1":2,"Q2":2}",NULL,NULL,NULL,NULL,NULL,NULL,NULL
NULL,29357,survey-likert,6,93835,0.0-6.0,"{"Q0":2,"Q1":0,"Q2":1}",NULL,NULL,NULL,NULL,NULL,NULL,NULL
NULL,21135,survey-likert,7,114972,0.0-7.0,"{"Q0":1,"Q1":2,"Q2":1}",NULL,NULL,NULL,NULL,NULL,NULL,NULL
NULL,21098,survey-likert,8,136074,0.0-8.0,"{"Q0":3,"Q1":2,"Q2":1}",NULL,NULL,NULL,NULL,NULL,NULL,NULL
"[{"page_index":0,"viewing_time":1903}]",1903,instructions,9,137977,0.0-9.0,NULL,NULL,NULL,NULL,NULL,NULL,NULL,NULL
"[{"page_index":0,"viewing_time":1248}]",1248,instructions,10,139227,0.0-10.0,NULL,NULL,NULL,NULL,NULL,NULL,NULL,NULL
NULL,12660,survey-likert,11,151890,0.0-11.0,"{"Q0":3,"Q1":4,"Q2":2}",NULL,NULL,NULL,NULL,NULL,NULL,NULL
NULL,23367,survey-likert,12,175259,0.0-12.0,"{"Q0":3,"Q1":4,"Q2":2}",NULL,NULL,NULL,NULL,NULL,NULL,NULL
NULL,5049,survey-multi-choice,13,180315,0.0-13.0,"{"Q0":"Yes, I solve Sudoku occasionally"}",NULL,NULL,NULL,NULL,NULL,NULL,NULL
NULL,5188,survey-multi-choice,14,185510,0.0-14.0-0.0,"{"Q0":"Average"}",NULL,NULL,NULL,NULL,NULL,NULL,NULL
NULL,4050,survey-multi-choice,15,189563,0.0-15.0,"{"Q0":"High school (four years or more)"}",NULL,NULL,NULL,NULL,NULL,NULL,NULL
NULL,3802,survey-multi-choice,16,193369,0.0-17.0-0.0,"{"Q0":"Yes, I am a university student now"}",NULL,NULL,NULL,NULL,NULL,NULL,NULL
NULL,9449,survey-text,17,202822,0.0-18.0-0.0,"{"Q0":"Electronics Engineering"}",NULL,NULL,NULL,NULL,NULL,NULL,NULL
NULL,3224,survey-multi-choice,18,206052,0.0-19.0,"{"Q0":"18 - 25 years of age"}",NULL,NULL,NULL,NULL,NULL,NULL,NULL
NULL,3591,survey-text,19,209645,0.0-20.0,"{"Q0":"Male"}",NULL,NULL,NULL,NULL,NULL,NULL,NULL
NULL,5297,survey-multi-choice,20,214949,0.0-21.0,"{"Q0":"Asian/ Pacific Islander"}",NULL,NULL,NULL,NULL,NULL,NULL,NULL
"[{"page_index":0,"viewing_time":2642},{"page_index":1,"viewing_time":2570},{"page_index":2,"viewing_time":3202},{"page_index":3,"viewing_time":1979},{"page_index":4,"viewing_time":965},{"page_index":5,"viewing_time":868}]",12227,instructions,21,227177,0.0-22.0-0.0,NULL,NULL,NULL,NULL,NULL,NULL,NULL,NULL
NULL,9690,html-keyboard-response,22,236870,0.0-22.0-1.0,NULL,"Are you ready to solve a practice Sudoku? <br><br> Yes, I am ready! (Press C) <br><br> Not yet, I would like to read the rules once again, please! (Press R)",67,NULL,NULL,NULL,NULL,NULL
"[{"page_index":0,"viewing_time":9674}]",9675,instructions,23,246546,0.0-23.0,NULL,NULL,NULL,NULL,NULL,NULL,NULL,NULL
NULL,18482,survey-likert,24,265030,0.0-24.0,"{"Q0":4}",NULL,NULL,NULL,NULL,NULL,NULL,NULL
"[{"page_index":0,"viewing_time":32895},{"page_index":1,"viewing_time":15797}]",48693,instructions,25,313723,0.0-25.0,NULL,NULL,NULL,NULL,NULL,NULL,NULL,NULL
NULL,1242,image-keyboard-response,26,314967,0.0-26.0,NULL,img/app1.png,68,NULL,NULL,NULL,NULL,NULL
NULL,1700,image-keyboard-response,27,316668,0.0-27.0,NULL,img/app2.png,68,NULL,NULL,NULL,NULL,NULL
NULL,1049,image-keyboard-response,28,317717,0.0-28.0,NULL,img/app3.png,68,NULL,NULL,NULL,NULL,NULL
NULL,1488,image-keyboard-response,29,319208,0.0-29.0,NULL,img/app4.png,68,NULL,NULL,NULL,NULL,NULL
NULL,1841,image-keyboard-response,30,321051,0.0-30.0,NULL,img/app5.png,68,NULL,NULL,NULL,NULL,NULL
"[{"page_index":0,"viewing_time":5975},{"page_index":1,"viewing_time":19636},{"page_index":2,"viewing_time":13436}]",39049,instructions,31,360101,0.0-31.0,NULL,NULL,NULL,NULL,NULL,NULL,NULL,NULL
NULL,NULL,sudoku_trial,32,431919,0.0-32.0,NULL,NULL,NULL,71807,boards2x3,a,1,1
"[{"page_index":0,"viewing_time":6474},{"page_index":1,"viewing_time":11030}]",17505,instructions,33,449425,0.0-33.0,NULL,NULL,NULL,NULL,NULL,NULL,NULL,NULL
NULL,29495,survey-likert,34,478924,0.0-34.0,"{"Q0":0,"Q1":0,"Q2":2}",NULL,NULL,NULL,NULL,NULL,NULL,NULL
NULL,16884,survey-likert,35,495813,0.0-35.0,"{"Q0":4,"Q1":0,"Q2":0}",NULL,NULL,NULL,NULL,NULL,NULL,NULL
NULL,16834,survey-likert,36,512651,0.0-36.0,"{"Q0":8,"Q1":0,"Q2":0,"Q3":0}",NULL,NULL,NULL,NULL,NULL,NULL,NULL
"[{"page_index":0,"viewing_time":14889}]",14889,instructions,37,527541,0.0-37.0,NULL,NULL,NULL,NULL,NULL,NULL,NULL,NULL
NULL,34653,survey-likert,38,562198,0.0-38.0,"{"Q0":4,"Q1":0,"Q2":0}",NULL,NULL,NULL,NULL,NULL,NULL,NULL
NULL,36561,survey-likert,39,598767,0.0-39.0,"{"Q0":5,"Q1":8,"Q2":8}",NULL,NULL,NULL,NULL,NULL,NULL,NULL
"[{"page_index":0,"viewing_time":8773}]",8773,instructions,40,607540,0.0-40.0,NULL,NULL,NULL,NULL,NULL,NULL,NULL,NULL
NULL,10635,survey-likert,41,618178,0.0-41.0,"{"Q0":6}",NULL,NULL,NULL,NULL,NULL,NULL,NULL
"[{"page_index":0,"viewing_time":20102},{"page_index":1,"viewing_time":3095}]",23198,instructions,42,641376,0.0-42.0,NULL,NULL,NULL,NULL,NULL,NULL,NULL,NULL
NULL,1051,image-keyboard-response,43,642428,0.0-43.0,NULL,img/app6.png,68,NULL,NULL,NULL,NULL,NULL
NULL,551,image-keyboard-response,44,642980,0.0-44.0,NULL,img/app7.png,68,NULL,NULL,NULL,NULL,NULL
NULL,596,image-keyboard-response,45,643576,0.0-45.0,NULL,img/app8.png,68,NULL,NULL,NULL,NULL,NULL
NULL,795,image-keyboard-response,46,644371,0.0-46.0,NULL,img/app9.png,68,NULL,NULL,NULL,NULL,NULL
NULL,789,image-keyboard-response,47,645161,0.0-47.0,NULL,img/app10.png,68,NULL,NULL,NULL,NULL,NULL
"[{"page_index":0,"viewing_time":3883}]",3884,instructions,48,649046,0.0-48.0,NULL,NULL,NULL,NULL,NULL,NULL,NULL,NULL
NULL,NULL,sudoku_trial,49,698984,0.0-49.0,NULL,NULL,NULL,49934,boards2x3,c,3,1
NULL,NULL,sudoku_trial,50,758357,0.0-50.0,NULL,NULL,NULL,59366,boards2x3,b,0,1
NULL,NULL,sudoku_trial,51,819896,0.0-51.0,NULL,NULL,NULL,61536,boards2x3,b,4,1
NULL,NULL,sudoku_trial,52,880266,0.0-52.0,NULL,NULL,NULL,60366,boards2x3,c,1,1
NULL,NULL,sudoku_trial,53,931136,0.0-53.0,NULL,NULL,NULL,50868,boards2x3,a,3,1
NULL,NULL,sudoku_trial,54,980577,0.0-54.0,NULL,NULL,NULL,49438,boards2x3,b,2,1
"[{"page_index":0,"viewing_time":9353},{"page_index":1,"viewing_time":1905},{"page_index":0,"viewing_time":2469},{"page_index":1,"viewing_time":5404}]",19132,instructions,55,999710,0.0-55.0,NULL,NULL,NULL,NULL,NULL,NULL,NULL,NULL
NULL,17081,survey-likert,56,1016795,0.0-56.0,"{"Q0":0,"Q1":0,"Q2":8}",NULL,NULL,NULL,NULL,NULL,NULL,NULL
NULL,8891,survey-likert,57,1025689,0.0-57.0,"{"Q0":8,"Q1":0,"Q2":0}",NULL,NULL,NULL,NULL,NULL,NULL,NULL
NULL,22347,survey-likert,58,1048041,0.0-58.0,"{"Q0":1,"Q1":7,"Q2":7,"Q3":1}",NULL,NULL,NULL,NULL,NULL,NULL,NULL
"[{"page_index":0,"viewing_time":12351}]",12351,instructions,59,1060393,0.0-59.0,NULL,NULL,NULL,NULL,NULL,NULL,NULL,NULL
NULL,17503,survey-likert,60,1077902,0.0-60.0,"{"Q0":0,"Q1":0,"Q2":0}",NULL,NULL,NULL,NULL,NULL,NULL,NULL
NULL,17266,survey-likert,61,1095171,0.0-61.0,"{"Q0":6,"Q1":8,"Q2":8}",NULL,NULL,NULL,NULL,NULL,NULL,NULL
"[{"page_index":0,"viewing_time":3895}]",3896,instructions,62,1099067,0.0-62.0,NULL,NULL,NULL,NULL,NULL,NULL,NULL,NULL
NULL,5813,survey-likert,63,1104885,0.0-63.0,"{"Q0":8}",NULL,NULL,NULL,NULL,NULL,NULL,NULL
"[{"page_index":0,"viewing_time":3879},{"page_index":1,"viewing_time":2366}]",6245,instructions,64,1111131,0.0-64.0,NULL,NULL,NULL,NULL,NULL,NULL,NULL,NULL
NULL,701,image-keyboard-response,65,1111835,0.0-65.0,NULL,img/app11.png,68,NULL,NULL,NULL,NULL,NULL
NULL,450,image-keyboard-response,66,1112286,0.0-66.0,NULL,img/app12.png,68,NULL,NULL,NULL,NULL,NULL
NULL,419,image-keyboard-response,67,1112706,0.0-67.0,NULL,img/app13.png,68,NULL,NULL,NULL,NULL,NULL
NULL,525,image-keyboard-response,68,1113233,0.0-68.0,NULL,img/app14.png,68,NULL,NULL,NULL,NULL,NULL
NULL,597,image-keyboard-response,69,1113831,0.0-69.0,NULL,img/app15.png,68,NULL,NULL,NULL,NULL,NULL
"[{"page_index":0,"viewing_time":3003}]",3004,instructions,70,1116836,0.0-70.0,NULL,NULL,NULL,NULL,NULL,NULL,NULL,NULL
"[{"page_index":0,"viewing_time":51453},{"page_index":1,"viewing_time":24781},{"page_index":2,"viewing_time":16230},{"page_index":3,"viewing_time":34397}]",126861,instructions,71,1243698,0.0-71.0,NULL,NULL,NULL,NULL,NULL,NULL,NULL,NULL
NULL,16979,survey-text,72,1260680,0.0-72.0,"{"Q0":"apremeyan.iyer@gmail.com"}",NULL,NULL,NULL,NULL,NULL,NULL,NULL
"[{"page_index":0,"viewing_time":8597},{"page_index":1,"viewing_time":12472},{"page_index":2,"viewing_time":5501},{"page_index":3,"viewing_time":5604}]",32174,instructions,0,32178,0.0-0.0,NULL,NULL,NULL,NULL,NULL,NULL,NULL,NULL
NULL,7775,survey-multi-choice,1,39958,0.0-1.0,"{"Q0":"I agree to participate in this research study"}",NULL,NULL,NULL,NULL,NULL,NULL,NULL
"[{"page_index":0,"viewing_time":8139},{"page_index":1,"viewing_time":3068},{"page_index":2,"viewing_time":4651}]",15858,instructions,2,55816,0.0-2.0,NULL,NULL,NULL,NULL,NULL,NULL,NULL,NULL
NULL,16142,survey-likert,3,71960,0.0-3.0,"{"Q0":2,"Q1":2,"Q2":1}",NULL,NULL,NULL,NULL,NULL,NULL,NULL
NULL,14572,survey-likert,4,86534,0.0-4.0,"{"Q0":1,"Q1":2,"Q2":3}",NULL,NULL,NULL,NULL,NULL,NULL,NULL
NULL,17410,survey-likert,5,103945,0.0-5.0,"{"Q0":0,"Q1":1,"Q2":2}",NULL,NULL,NULL,NULL,NULL,NULL,NULL
NULL,16462,survey-likert,6,120408,0.0-6.0,"{"Q0":2,"Q1":2,"Q2":1}",NULL,NULL,NULL,NULL,NULL,NULL,NULL
NULL,15279,survey-likert,7,135689,0.0-7.0,"{"Q0":2,"Q1":1,"Q2":3}",NULL,NULL,NULL,NULL,NULL,NULL,NULL
NULL,22672,survey-likert,8,158362,0.0-8.0,"{"Q0":2,"Q1":2,"Q2":3}",NULL,NULL,NULL,NULL,NULL,NULL,NULL
"[{"page_index":0,"viewing_time":5623}]",5624,instructions,9,163986,0.0-9.0,NULL,NULL,NULL,NULL,NULL,NULL,NULL,NULL
"[{"page_index":0,"viewing_time":3550}]",3550,instructions,10,167536,0.0-10.0,NULL,NULL,NULL,NULL,NULL,NULL,NULL,NULL
NULL,10368,survey-likert,11,177905,0.0-11.0,"{"Q0":4,"Q1":4,"Q2":3}",NULL,NULL,NULL,NULL,NULL,NULL,NULL
NULL,10242,survey-likert,12,188148,0.0-12.0,"{"Q0":4,"Q1":4,"Q2":2}",NULL,NULL,NULL,NULL,NULL,NULL,NULL
NULL,4925,survey-multi-choice,13,193074,0.0-13.0,"{"Q0":"Yes, I solve Sudoku occasionally"}",NULL,NULL,NULL,NULL,NULL,NULL,NULL
NULL,6486,survey-multi-choice,14,199563,0.0-14.0-0.0,"{"Q0":"Rather bad"}",NULL,NULL,NULL,NULL,NULL,NULL,NULL
NULL,7419,survey-multi-choice,15,206983,0.0-15.0,"{"Q0":"Undergraduate degree (e.g., BA)"}",NULL,NULL,NULL,NULL,NULL,NULL,NULL
NULL,7297,survey-text,16,214282,0.0-16.0-0.0,"{"Q0":"Computer Engineering"}",NULL,NULL,NULL,NULL,NULL,NULL,NULL
NULL,3025,survey-multi-choice,17,217308,0.0-19.0,"{"Q0":"18 - 25 years of age"}",NULL,NULL,NULL,NULL,NULL,NULL,NULL
NULL,5308,survey-text,18,222617,0.0-20.0,"{"Q0":"Female"}",NULL,NULL,NULL,NULL,NULL,NULL,NULL
NULL,8108,survey-multi-choice,19,230726,0.0-21.0,"{"Q0":"Asian/ Pacific Islander"}",NULL,NULL,NULL,NULL,NULL,NULL,NULL
"[{"page_index":0,"viewing_time":7052},{"page_index":1,"viewing_time":17709},{"page_index":2,"viewing_time":5441},{"page_index":3,"viewing_time":11356},{"page_index":4,"viewing_time":2637},{"page_index":5,"viewing_time":1254}]",45449,instructions,20,276175,0.0-22.0-0.0,NULL,NULL,NULL,NULL,NULL,NULL,NULL,NULL
NULL,2766,html-keyboard-response,21,278944,0.0-22.0-1.0,NULL,"Are you ready to solve a practice Sudoku? <br><br> Yes, I am ready! (Press C) <br><br> Not yet, I would like to read the rules once again, please! (Press R)",67,NULL,NULL,NULL,NULL,NULL
"[{"page_index":0,"viewing_time":2833}]",2834,instructions,22,281779,0.0-23.0,NULL,NULL,NULL,NULL,NULL,NULL,NULL,NULL
NULL,10440,survey-likert,23,292219,0.0-24.0,"{"Q0":6}",NULL,NULL,NULL,NULL,NULL,NULL,NULL
"[{"page_index":0,"viewing_time":11596},{"page_index":1,"viewing_time":4078}]",15674,instructions,24,307894,0.0-25.0,NULL,NULL,NULL,NULL,NULL,NULL,NULL,NULL
NULL,5082,image-keyboard-response,25,312980,0.0-26.0,NULL,img/app1.png,68,NULL,NULL,NULL,NULL,NULL
NULL,2263,image-keyboard-response,26,315244,0.0-27.0,NULL,img/app2.png,75,NULL,NULL,NULL,NULL,NULL
NULL,1298,image-keyboard-response,27,316542,0.0-28.0,NULL,img/app3.png,68,NULL,NULL,NULL,NULL,NULL
NULL,2069,image-keyboard-response,28,318612,0.0-29.0,NULL,img/app4.png,75,NULL,NULL,NULL,NULL,NULL
NULL,1939,image-keyboard-response,29,320552,0.0-30.0,NULL,img/app5.png,75,NULL,NULL,NULL,NULL,NULL
"[{"page_index":0,"viewing_time":2580},{"page_index":1,"viewing_time":6621},{"page_index":2,"viewing_time":4549}]",13750,instructions,30,334302,0.0-31.0,NULL,NULL,NULL,NULL,NULL,NULL,NULL,NULL
NULL,NULL,sudoku_trial,31,389992,0.0-32.0,NULL,NULL,NULL,55685,boards2x3,a,1,1
"[{"page_index":0,"viewing_time":2469},{"page_index":1,"viewing_time":5082}]",7551,instructions,32,397544,0.0-33.0,NULL,NULL,NULL,NULL,NULL,NULL,NULL,NULL
NULL,13163,survey-likert,33,410710,0.0-34.0,"{"Q0":2,"Q1":5,"Q2":8}",NULL,NULL,NULL,NULL,NULL,NULL,NULL
NULL,9469,survey-likert,34,420180,0.0-35.0,"{"Q0":5,"Q1":0,"Q2":1}",NULL,NULL,NULL,NULL,NULL,NULL,NULL
NULL,16841,survey-likert,35,437023,0.0-36.0,"{"Q0":7,"Q1":0,"Q2":0,"Q3":0}",NULL,NULL,NULL,NULL,NULL,NULL,NULL
"[{"page_index":0,"viewing_time":3768}]",3768,instructions,36,440791,0.0-37.0,NULL,NULL,NULL,NULL,NULL,NULL,NULL,NULL
NULL,15942,survey-likert,37,456734,0.0-38.0,"{"Q0":8,"Q1":4,"Q2":6}",NULL,NULL,NULL,NULL,NULL,NULL,NULL
NULL,11859,survey-likert,38,468596,0.0-39.0,"{"Q0":8,"Q1":1,"Q2":5}",NULL,NULL,NULL,NULL,NULL,NULL,NULL
"[{"page_index":0,"viewing_time":2004}]",2004,instructions,39,470600,0.0-40.0,NULL,NULL,NULL,NULL,NULL,NULL,NULL,NULL
NULL,10312,survey-likert,40,480912,0.0-41.0,"{"Q0":6}",NULL,NULL,NULL,NULL,NULL,NULL,NULL
"[{"page_index":0,"viewing_time":3564},{"page_index":1,"viewing_time":1860}]",5425,instructions,41,486337,0.0-42.0,NULL,NULL,NULL,NULL,NULL,NULL,NULL,NULL
NULL,3222,image-keyboard-response,42,489560,0.0-43.0,NULL,img/app6.png,68,NULL,NULL,NULL,NULL,NULL
NULL,941,image-keyboard-response,43,490501,0.0-44.0,NULL,img/app7.png,68,NULL,NULL,NULL,NULL,NULL
NULL,1957,image-keyboard-response,44,492459,0.0-45.0,NULL,img/app8.png,75,NULL,NULL,NULL,NULL,NULL
NULL,873,image-keyboard-response,45,493333,0.0-46.0,NULL,img/app9.png,68,NULL,NULL,NULL,NULL,NULL
NULL,1079,image-keyboard-response,46,494413,0.0-47.0,NULL,img/app10.png,68,NULL,NULL,NULL,NULL,NULL
"[{"page_index":0,"viewing_time":1793}]",1793,instructions,47,496207,0.0-48.0,NULL,NULL,NULL,NULL,NULL,NULL,NULL,NULL
NULL,NULL,sudoku_trial,48,551549,0.0-49.0,NULL,NULL,NULL,55339,boards2x3,c,3,1
NULL,NULL,sudoku_trial,49,605676,0.0-50.0,NULL,NULL,NULL,54126,boards2x3,c,1,1
NULL,NULL,sudoku_trial,50,654854,0.0-51.0,NULL,NULL,NULL,49178,boards2x3,b,0,1
NULL,NULL,sudoku_trial,51,717673,0.0-52.0,NULL,NULL,NULL,62818,boards2x3,a,3,1
NULL,NULL,sudoku_trial,52,765677,0.0-53.0,NULL,NULL,NULL,48002,boards2x3,b,2,1
NULL,NULL,sudoku_trial,53,812855,0.0-54.0,NULL,NULL,NULL,47177,boards2x3,b,4,1
"[{"page_index":0,"viewing_time":10704},{"page_index":1,"viewing_time":1900}]",12605,instructions,54,825460,0.0-55.0,NULL,NULL,NULL,NULL,NULL,NULL,NULL,NULL
NULL,10261,survey-likert,55,835724,0.0-56.0,"{"Q0":6,"Q1":6,"Q2":8}",NULL,NULL,NULL,NULL,NULL,NULL,NULL
NULL,7250,survey-likert,56,842977,0.0-57.0,"{"Q0":7,"Q1":0,"Q2":0}",NULL,NULL,NULL,NULL,NULL,NULL,NULL
NULL,11311,survey-likert,57,854290,0.0-58.0,"{"Q0":6,"Q1":3,"Q2":5,"Q3":0}",NULL,NULL,NULL,NULL,NULL,NULL,NULL
"[{"page_index":0,"viewing_time":1959}]",1959,instructions,58,856249,0.0-59.0,NULL,NULL,NULL,NULL,NULL,NULL,NULL,NULL
NULL,11948,survey-likert,59,868199,0.0-60.0,"{"Q0":8,"Q1":6,"Q2":6}",NULL,NULL,NULL,NULL,NULL,NULL,NULL
NULL,10069,survey-likert,60,878269,0.0-61.0,"{"Q0":6,"Q1":2,"Q2":4}",NULL,NULL,NULL,NULL,NULL,NULL,NULL
"[{"page_index":0,"viewing_time":2256}]",2256,instructions,61,880527,0.0-62.0,NULL,NULL,NULL,NULL,NULL,NULL,NULL,NULL
NULL,5250,survey-likert,62,885778,0.0-63.0,"{"Q0":7}",NULL,NULL,NULL,NULL,NULL,NULL,NULL
"[{"page_index":0,"viewing_time":2760},{"page_index":1,"viewing_time":2774}]",5535,instructions,63,891314,0.0-64.0,NULL,NULL,NULL,NULL,NULL,NULL,NULL,NULL
NULL,2354,image-keyboard-response,64,893670,0.0-65.0,NULL,img/app11.png,68,NULL,NULL,NULL,NULL,NULL
NULL,621,image-keyboard-response,65,894292,0.0-66.0,NULL,img/app12.png,68,NULL,NULL,NULL,NULL,NULL
NULL,964,image-keyboard-response,66,895259,0.0-67.0,NULL,img/app13.png,68,NULL,NULL,NULL,NULL,NULL
NULL,653,image-keyboard-response,67,895913,0.0-68.0,NULL,img/app14.png,68,NULL,NULL,NULL,NULL,NULL
NULL,553,image-keyboard-response,68,896468,0.0-69.0,NULL,img/app15.png,68,NULL,NULL,NULL,NULL,NULL
"[{"page_index":0,"viewing_time":1722}]",1723,instructions,69,898196,0.0-70.0,NULL,NULL,NULL,NULL,NULL,NULL,NULL,NULL
"[{"page_index":0,"viewing_time":19034},{"page_index":1,"viewing_time":9216},{"page_index":2,"viewing_time":6917},{"page_index":3,"viewing_time":1951}]",37118,instructions,70,935314,0.0-71.0,NULL,NULL,NULL,NULL,NULL,NULL,NULL,NULL
NULL,16793,survey-text,71,952109,0.0-72.0,"{"Q0":"ruchipanch14@gmail.com"}",NULL,NULL,NULL,NULL,NULL,NULL,NULL
"[{"page_index":0,"viewing_time":13157},{"page_index":1,"viewing_time":61424},{"page_index":2,"viewing_time":1585},{"page_index":1,"viewing_time":2810},{"page_index":2,"viewing_time":4950},{"page_index":3,"viewing_time":3839}]",87765,instructions,0,87771,0.0-0.0,NULL,NULL,NULL,NULL,NULL,NULL,NULL,NULL
NULL,8067,survey-multi-choice,1,95842,0.0-1.0,"{"Q0":"I agree to participate in this research study"}",NULL,NULL,NULL,NULL,NULL,NULL,NULL
"[{"page_index":0,"viewing_time":33541},{"page_index":1,"viewing_time":2916},{"page_index":2,"viewing_time":5663}]",42121,instructions,2,137963,0.0-2.0,NULL,NULL,NULL,NULL,NULL,NULL,NULL,NULL
NULL,22366,survey-likert,3,160331,0.0-3.0,"{"Q0":2,"Q1":2,"Q2":1}",NULL,NULL,NULL,NULL,NULL,NULL,NULL
NULL,25281,survey-likert,4,185612,0.0-4.0,"{"Q0":2,"Q1":2,"Q2":2}",NULL,NULL,NULL,NULL,NULL,NULL,NULL
NULL,13105,survey-likert,5,198718,0.0-5.0,"{"Q0":3,"Q1":2,"Q2":2}",NULL,NULL,NULL,NULL,NULL,NULL,NULL
NULL,15464,survey-likert,6,214183,0.0-6.0,"{"Q0":2,"Q1":1,"Q2":2}",NULL,NULL,NULL,NULL,NULL,NULL,NULL
NULL,20686,survey-likert,7,234870,0.0-7.0,"{"Q0":2,"Q1":1,"Q2":2}",NULL,NULL,NULL,NULL,NULL,NULL,NULL
NULL,28442,survey-likert,8,263312,0.0-8.0,"{"Q0":2,"Q1":2,"Q2":1}",NULL,NULL,NULL,NULL,NULL,NULL,NULL
"[{"page_index":0,"viewing_time":7002}]",7002,instructions,9,270314,0.0-9.0,NULL,NULL,NULL,NULL,NULL,NULL,NULL,NULL
"[{"page_index":0,"viewing_time":2266}]",2266,instructions,10,272580,0.0-10.0,NULL,NULL,NULL,NULL,NULL,NULL,NULL,NULL
NULL,17421,survey-likert,11,290003,0.0-11.0,"{"Q0":2,"Q1":1,"Q2":3}",NULL,NULL,NULL,NULL,NULL,NULL,NULL
NULL,13538,survey-likert,12,303541,0.0-12.0,"{"Q0":2,"Q1":1,"Q2":2}",NULL,NULL,NULL,NULL,NULL,NULL,NULL
NULL,5807,survey-multi-choice,13,309349,0.0-13.0,"{"Q0":"No, I have never solved Sudoku puzzles before"}",NULL,NULL,NULL,NULL,NULL,NULL,NULL
NULL,6404,survey-multi-choice,14,315755,0.0-15.0,"{"Q0":"Undergraduate degree (e.g., BA)"}",NULL,NULL,NULL,NULL,NULL,NULL,NULL
NULL,14742,survey-text,15,330499,0.0-16.0-0.0,"{"Q0":"Engineering"}",NULL,NULL,NULL,NULL,NULL,NULL,NULL
NULL,3378,survey-multi-choice,16,333879,0.0-19.0,"{"Q0":"18 - 25 years of age"}",NULL,NULL,NULL,NULL,NULL,NULL,NULL
NULL,5376,survey-text,17,339256,0.0-20.0,"{"Q0":"Male"}",NULL,NULL,NULL,NULL,NULL,NULL,NULL
NULL,4640,survey-multi-choice,18,343898,0.0-21.0,"{"Q0":"Asian/ Pacific Islander"}",NULL,NULL,NULL,NULL,NULL,NULL,NULL
"[{"page_index":0,"viewing_time":8539},{"page_index":1,"viewing_time":27467},{"page_index":2,"viewing_time":10875},{"page_index":3,"viewing_time":6716},{"page_index":2,"viewing_time":10952},{"page_index":3,"viewing_time":8959},{"page_index":4,"viewing_time":2243},{"page_index":5,"viewing_time":1469}]",77220,instructions,19,421118,0.0-22.0-0.0,NULL,NULL,NULL,NULL,NULL,NULL,NULL,NULL
NULL,3466,html-keyboard-response,20,424586,0.0-22.0-1.0,NULL,"Are you ready to solve a practice Sudoku? <br><br> Yes, I am ready! (Press C) <br><br> Not yet, I would like to read the rules once again, please! (Press R)",67,NULL,NULL,NULL,NULL,NULL
"[{"page_index":0,"viewing_time":4537}]",4537,instructions,21,429124,0.0-23.0,NULL,NULL,NULL,NULL,NULL,NULL,NULL,NULL
NULL,12098,survey-likert,22,441224,0.0-24.0,"{"Q0":5}",NULL,NULL,NULL,NULL,NULL,NULL,NULL
"[{"page_index":0,"viewing_time":17448},{"page_index":1,"viewing_time":6659}]",24107,instructions,23,465331,0.0-25.0,NULL,NULL,NULL,NULL,NULL,NULL,NULL,NULL
NULL,6856,image-keyboard-response,24,472190,0.0-26.0,NULL,img/app1.png,68,NULL,NULL,NULL,NULL,NULL
NULL,5840,image-keyboard-response,25,478032,0.0-27.0,NULL,img/app2.png,68,NULL,NULL,NULL,NULL,NULL
NULL,3765,image-keyboard-response,26,481797,0.0-28.0,NULL,img/app3.png,68,NULL,NULL,NULL,NULL,NULL
NULL,1538,image-keyboard-response,27,483341,0.0-29.0,NULL,img/app4.png,68,NULL,NULL,NULL,NULL,NULL
NULL,4318,image-keyboard-response,28,487661,0.0-30.0,NULL,img/app5.png,68,NULL,NULL,NULL,NULL,NULL
"[{"page_index":0,"viewing_time":2353},{"page_index":1,"viewing_time":4039},{"page_index":2,"viewing_time":1236}]",7628,instructions,29,495290,0.0-31.0,NULL,NULL,NULL,NULL,NULL,NULL,NULL,NULL
NULL,NULL,sudoku_trial,30,616106,0.0-32.0,NULL,NULL,NULL,120814,boards2x3,a,1,1
"[{"page_index":0,"viewing_time":2829},{"page_index":1,"viewing_time":2538}]",5368,instructions,31,621474,0.0-33.0,NULL,NULL,NULL,NULL,NULL,NULL,NULL,NULL
NULL,15662,survey-likert,32,637137,0.0-34.0,"{"Q0":5,"Q1":0,"Q2":5}",NULL,NULL,NULL,NULL,NULL,NULL,NULL
NULL,9877,survey-likert,33,647015,0.0-35.0,"{"Q0":6,"Q1":0,"Q2":0}",NULL,NULL,NULL,NULL,NULL,NULL,NULL
NULL,114327,survey-likert,34,761344,0.0-36.0,"{"Q0":"","Q1":6,"Q2":4,"Q3":4}",NULL,NULL,NULL,NULL,NULL,NULL,NULL
"[{"page_index":0,"viewing_time":4556}]",4556,instructions,35,765900,0.0-37.0,NULL,NULL,NULL,NULL,NULL,NULL,NULL,NULL
NULL,17501,survey-likert,36,783403,0.0-38.0,"{"Q0":5,"Q1":6,"Q2":5}",NULL,NULL,NULL,NULL,NULL,NULL,NULL
NULL,20034,survey-likert,37,803440,0.0-39.0,"{"Q0":2,"Q1":2,"Q2":6}",NULL,NULL,NULL,NULL,NULL,NULL,NULL
"[{"page_index":0,"viewing_time":4275}]",4276,instructions,38,807716,0.0-40.0,NULL,NULL,NULL,NULL,NULL,NULL,NULL,NULL
NULL,7999,survey-likert,39,815716,0.0-41.0,"{"Q0":5}",NULL,NULL,NULL,NULL,NULL,NULL,NULL
"[{"page_index":0,"viewing_time":1553},{"page_index":1,"viewing_time":1897}]",3450,instructions,40,819166,0.0-42.0,NULL,NULL,NULL,NULL,NULL,NULL,NULL,NULL
NULL,4306,image-keyboard-response,41,823473,0.0-43.0,NULL,img/app6.png,68,NULL,NULL,NULL,NULL,NULL
NULL,1938,image-keyboard-response,42,825413,0.0-44.0,NULL,img/app7.png,68,NULL,NULL,NULL,NULL,NULL
NULL,359,image-keyboard-response,43,825774,0.0-45.0,NULL,img/app8.png,68,NULL,NULL,NULL,NULL,NULL
NULL,298,image-keyboard-response,44,826074,0.0-46.0,NULL,img/app9.png,68,NULL,NULL,NULL,NULL,NULL
NULL,285,image-keyboard-response,45,826360,0.0-47.0,NULL,img/app10.png,68,NULL,NULL,NULL,NULL,NULL
"[{"page_index":0,"viewing_time":2258}]",2258,instructions,46,828619,0.0-48.0,NULL,NULL,NULL,NULL,NULL,NULL,NULL,NULL
NULL,NULL,sudoku_trial,47,909294,0.0-49.0,NULL,NULL,NULL,80674,boards2x3,c,1,1
NULL,NULL,sudoku_trial,48,1016366,0.0-50.0,NULL,NULL,NULL,107071,boards2x3,b,2,1
NULL,NULL,sudoku_trial,49,1103656,0.0-51.0,NULL,NULL,NULL,87290,boards2x3,b,0,1
NULL,NULL,sudoku_trial,50,1179844,0.0-52.0,NULL,NULL,NULL,76186,boards2x3,b,4,1
NULL,NULL,sudoku_trial,51,1271066,0.0-53.0,NULL,NULL,NULL,91220,boards2x3,c,3,1
NULL,NULL,sudoku_trial,52,1397799,0.0-54.0,NULL,NULL,NULL,NULL,boards2x3,a,3,
"[{"page_index":0,"viewing_time":4381},{"page_index":1,"viewing_time":4775}]",9156,instructions,53,1406956,0.0-55.0,NULL,NULL,NULL,NULL,NULL,NULL,NULL,NULL
NULL,38956,survey-likert,54,1445913,0.0-56.0,"{"Q0":1,"Q1":0,"Q2":0}",NULL,NULL,NULL,NULL,NULL,NULL,NULL
NULL,19123,survey-likert,55,1465038,0.0-57.0,"{"Q0":8,"Q1":0,"Q2":0}",NULL,NULL,NULL,NULL,NULL,NULL,NULL
NULL,22704,survey-likert,56,1487743,0.0-58.0,"{"Q0":1,"Q1":6,"Q2":7,"Q3":7}",NULL,NULL,NULL,NULL,NULL,NULL,NULL
"[{"page_index":0,"viewing_time":6975}]",6976,instructions,57,1494719,0.0-59.0,NULL,NULL,NULL,NULL,NULL,NULL,NULL,NULL
NULL,13776,survey-likert,58,1508496,0.0-60.0,"{"Q0":8,"Q1":8,"Q2":0}",NULL,NULL,NULL,NULL,NULL,NULL,NULL
NULL,13256,survey-likert,59,1521754,0.0-61.0,"{"Q0":0,"Q1":4,"Q2":8}",NULL,NULL,NULL,NULL,NULL,NULL,NULL
"[{"page_index":0,"viewing_time":20811}]",20812,instructions,60,1542566,0.0-62.0,NULL,NULL,NULL,NULL,NULL,NULL,NULL,NULL
NULL,5128,survey-likert,61,1547694,0.0-63.0,"{"Q0":8}",NULL,NULL,NULL,NULL,NULL,NULL,NULL
"[{"page_index":0,"viewing_time":3974},{"page_index":1,"viewing_time":2019}]",5994,instructions,62,1553689,0.0-64.0,NULL,NULL,NULL,NULL,NULL,NULL,NULL,NULL
NULL,7108,image-keyboard-response,63,1560797,0.0-65.0,NULL,img/app11.png,68,NULL,NULL,NULL,NULL,NULL
NULL,294,image-keyboard-response,64,1561093,0.0-66.0,NULL,img/app12.png,68,NULL,NULL,NULL,NULL,NULL
NULL,275,image-keyboard-response,65,1561370,0.0-67.0,NULL,img/app13.png,68,NULL,NULL,NULL,NULL,NULL
NULL,310,image-keyboard-response,66,1561682,0.0-68.0,NULL,img/app14.png,68,NULL,NULL,NULL,NULL,NULL
NULL,292,image-keyboard-response,67,1561975,0.0-69.0,NULL,img/app15.png,68,NULL,NULL,NULL,NULL,NULL
"[{"page_index":0,"viewing_time":1751}]",1752,instructions,68,1563728,0.0-70.0,NULL,NULL,NULL,NULL,NULL,NULL,NULL,NULL
"[{"page_index":0,"viewing_time":2729},{"page_index":1,"viewing_time":1864},{"page_index":2,"viewing_time":1098},{"page_index":3,"viewing_time":689}]",6380,instructions,69,1570109,0.0-71.0,NULL,NULL,NULL,NULL,NULL,NULL,NULL,NULL
NULL,2304,survey-text,70,1572413,0.0-72.0,"{"Q0":""}",NULL,NULL,NULL,NULL,NULL,NULL,NULL
"[{"page_index":0,"viewing_time":1379},{"page_index":1,"viewing_time":1352},{"page_index":2,"viewing_time":592},{"page_index":3,"viewing_time":729}]",4052,instructions,0,4055,0.0-0.0,NULL,NULL,NULL,NULL,NULL,NULL,NULL,NULL
NULL,5125,survey-multi-choice,1,9185,0.0-1.0,"{"Q0":"I agree to participate in this research study"}",NULL,NULL,NULL,NULL,NULL,NULL,NULL
"[{"page_index":0,"viewing_time":1069},{"page_index":1,"viewing_time":1216},{"page_index":2,"viewing_time":1208}]",3494,instructions,2,12679,0.0-2.0,NULL,NULL,NULL,NULL,NULL,NULL,NULL,NULL
NULL,19447,survey-likert,3,32129,0.0-3.0,"{"Q0":3,"Q1":3,"Q2":2}",NULL,NULL,NULL,NULL,NULL,NULL,NULL
NULL,18102,survey-likert,4,50232,0.0-4.0,"{"Q0":3,"Q1":2,"Q2":3}",NULL,NULL,NULL,NULL,NULL,NULL,NULL
NULL,14367,survey-likert,5,64601,0.0-5.0,"{"Q0":3,"Q1":3,"Q2":3}",NULL,NULL,NULL,NULL,NULL,NULL,NULL
NULL,30247,survey-likert,6,94848,0.0-6.0,"{"Q0":3,"Q1":2,"Q2":0}",NULL,NULL,NULL,NULL,NULL,NULL,NULL
NULL,36728,survey-likert,7,131577,0.0-7.0,"{"Q0":0,"Q1":2,"Q2":2}",NULL,NULL,NULL,NULL,NULL,NULL,NULL
NULL,36919,survey-likert,8,168497,0.0-8.0,"{"Q0":3,"Q1":2,"Q2":2}",NULL,NULL,NULL,NULL,NULL,NULL,NULL
"[{"page_index":0,"viewing_time":1480}]",1480,instructions,9,169977,0.0-9.0,NULL,NULL,NULL,NULL,NULL,NULL,NULL,NULL
"[{"page_index":0,"viewing_time":1095}]",1095,instructions,10,171073,0.0-10.0,NULL,NULL,NULL,NULL,NULL,NULL,NULL,NULL
NULL,45607,survey-likert,11,216682,0.0-11.0,"{"Q0":1,"Q1":3,"Q2":3}",NULL,NULL,NULL,NULL,NULL,NULL,NULL
NULL,43215,survey-likert,12,259899,0.0-12.0,"{"Q0":4,"Q1":3,"Q2":2}",NULL,NULL,NULL,NULL,NULL,NULL,NULL
NULL,5182,survey-multi-choice,13,265083,0.0-13.0,"{"Q0":"Yes, I solve Sudoku occasionally"}",NULL,NULL,NULL,NULL,NULL,NULL,NULL
NULL,11189,survey-multi-choice,14,276275,0.0-14.0-0.0,"{"Q0":"Average"}",NULL,NULL,NULL,NULL,NULL,NULL,NULL
NULL,12486,survey-multi-choice,15,288763,0.0-15.0,"{"Q0":"Undergraduate degree (e.g., BA)"}",NULL,NULL,NULL,NULL,NULL,NULL,NULL
NULL,15831,survey-text,16,304595,0.0-16.0-0.0,"{"Q0":"International Relations:Politics and History"}",NULL,NULL,NULL,NULL,NULL,NULL,NULL
NULL,2868,survey-multi-choice,17,307466,0.0-19.0,"{"Q0":"18 - 25 years of age"}",NULL,NULL,NULL,NULL,NULL,NULL,NULL
NULL,4464,survey-text,18,311930,0.0-20.0,"{"Q0":"Male"}",NULL,NULL,NULL,NULL,NULL,NULL,NULL
NULL,12246,survey-multi-choice,19,324179,0.0-21.0,"{"Q0":"White"}",NULL,NULL,NULL,NULL,NULL,NULL,NULL
"[{"page_index":0,"viewing_time":2199},{"page_index":1,"viewing_time":7241},{"page_index":2,"viewing_time":10591},{"page_index":3,"viewing_time":8273},{"page_index":4,"viewing_time":7520},{"page_index":5,"viewing_time":3159}]",38983,instructions,20,363162,0.0-22.0-0.0,NULL,NULL,NULL,NULL,NULL,NULL,NULL,NULL
NULL,7262,html-keyboard-response,21,370426,0.0-22.0-1.0,NULL,"Are you ready to solve a practice Sudoku? <br><br> Yes, I am ready! (Press C) <br><br> Not yet, I would like to read the rules once again, please! (Press R)",67,NULL,NULL,NULL,NULL,NULL
"[{"page_index":0,"viewing_time":5248}]",5249,instructions,22,375676,0.0-23.0,NULL,NULL,NULL,NULL,NULL,NULL,NULL,NULL
NULL,27991,survey-likert,23,403669,0.0-24.0,"{"Q0":8}",NULL,NULL,NULL,NULL,NULL,NULL,NULL
"[{"page_index":0,"viewing_time":27159},{"page_index":1,"viewing_time":14009},{"page_index":0,"viewing_time":5903},{"page_index":1,"viewing_time":729}]",47800,instructions,24,451469,0.0-25.0,NULL,NULL,NULL,NULL,NULL,NULL,NULL,NULL
NULL,11037,image-keyboard-response,25,462507,0.0-26.0,NULL,img/app1.png,68,NULL,NULL,NULL,NULL,NULL
NULL,31648,image-keyboard-response,26,494156,0.0-27.0,NULL,img/app2.png,68,NULL,NULL,NULL,NULL,NULL
NULL,3213,image-keyboard-response,27,497371,0.0-28.0,NULL,img/app3.png,68,NULL,NULL,NULL,NULL,NULL
NULL,12527,image-keyboard-response,28,509899,0.0-29.0,NULL,img/app4.png,68,NULL,NULL,NULL,NULL,NULL
NULL,20144,image-keyboard-response,29,530043,0.0-30.0,NULL,img/app5.png,68,NULL,NULL,NULL,NULL,NULL
"[{"page_index":0,"viewing_time":5265},{"page_index":1,"viewing_time":19610},{"page_index":2,"viewing_time":6135}]",31010,instructions,30,561053,0.0-31.0,NULL,NULL,NULL,NULL,NULL,NULL,NULL,NULL
NULL,NULL,sudoku_trial,31,616919,0.0-32.0,NULL,NULL,NULL,55861,boards2x3,a,1,1
"[{"page_index":0,"viewing_time":5319},{"page_index":1,"viewing_time":12231}]",17552,instructions,32,634471,0.0-33.0,NULL,NULL,NULL,NULL,NULL,NULL,NULL,NULL
NULL,45478,survey-likert,33,679952,0.0-34.0,"{"Q0":1,"Q1":1,"Q2":4}",NULL,NULL,NULL,NULL,NULL,NULL,NULL
NULL,10238,survey-likert,34,690192,0.0-35.0,"{"Q0":8,"Q1":0,"Q2":0}",NULL,NULL,NULL,NULL,NULL,NULL,NULL
NULL,32038,survey-likert,35,722233,0.0-36.0,"{"Q0":4,"Q1":0,"Q2":2,"Q3":0}",NULL,NULL,NULL,NULL,NULL,NULL,NULL
"[{"page_index":0,"viewing_time":3116}]",3118,instructions,36,725351,0.0-37.0,NULL,NULL,NULL,NULL,NULL,NULL,NULL,NULL
NULL,28705,survey-likert,37,754058,0.0-38.0,"{"Q0":5,"Q1":4,"Q2":0}",NULL,NULL,NULL,NULL,NULL,NULL,NULL
NULL,31247,survey-likert,38,785305,0.0-39.0,"{"Q0":5,"Q1":8,"Q2":7}",NULL,NULL,NULL,NULL,NULL,NULL,NULL
"[{"page_index":0,"viewing_time":6189}]",6189,instructions,39,791496,0.0-40.0,NULL,NULL,NULL,NULL,NULL,NULL,NULL,NULL
NULL,9616,survey-likert,40,801114,0.0-41.0,"{"Q0":8}",NULL,NULL,NULL,NULL,NULL,NULL,NULL
"[{"page_index":0,"viewing_time":15061},{"page_index":1,"viewing_time":8641}]",23702,instructions,41,824816,0.0-42.0,NULL,NULL,NULL,NULL,NULL,NULL,NULL,NULL
NULL,2959,image-keyboard-response,42,827775,0.0-43.0,NULL,img/app6.png,68,NULL,NULL,NULL,NULL,NULL
NULL,9064,image-keyboard-response,43,836839,0.0-44.0,NULL,img/app7.png,68,NULL,NULL,NULL,NULL,NULL
NULL,3559,image-keyboard-response,44,840398,0.0-45.0,NULL,img/app8.png,68,NULL,NULL,NULL,NULL,NULL
NULL,1255,image-keyboard-response,45,841655,0.0-46.0,NULL,img/app9.png,68,NULL,NULL,NULL,NULL,NULL
NULL,1271,image-keyboard-response,46,842926,0.0-47.0,NULL,img/app10.png,68,NULL,NULL,NULL,NULL,NULL
"[{"page_index":0,"viewing_time":1338}]",1338,instructions,47,844264,0.0-48.0,NULL,NULL,NULL,NULL,NULL,NULL,NULL,NULL
NULL,NULL,sudoku_trial,48,914234,0.0-49.0,NULL,NULL,NULL,69968,boards2x3,c,3,1
NULL,NULL,sudoku_trial,49,972116,0.0-50.0,NULL,NULL,NULL,57880,boards2x3,b,4,1
NULL,NULL,sudoku_trial,50,1029028,0.0-51.0,NULL,NULL,NULL,56911,boards2x3,b,0,1
NULL,NULL,sudoku_trial,51,1089205,0.0-52.0,NULL,NULL,NULL,60175,boards2x3,c,1,1
NULL,NULL,sudoku_trial,52,1149629,0.0-53.0,NULL,NULL,NULL,60422,boards2x3,a,3,1
NULL,NULL,sudoku_trial,53,1204943,0.0-54.0,NULL,NULL,NULL,55311,boards2x3,b,2,1
"[{"page_index":0,"viewing_time":6876},{"page_index":1,"viewing_time":1040}]",7917,instructions,54,1212860,0.0-55.0,NULL,NULL,NULL,NULL,NULL,NULL,NULL,NULL
NULL,28248,survey-likert,55,1241111,0.0-56.0,"{"Q0":2,"Q1":1,"Q2":4}",NULL,NULL,NULL,NULL,NULL,NULL,NULL
NULL,6860,survey-likert,56,1247974,0.0-57.0,"{"Q0":8,"Q1":0,"Q2":0}",NULL,NULL,NULL,NULL,NULL,NULL,NULL
NULL,17268,survey-likert,57,1265247,0.0-58.0,"{"Q0":4,"Q1":0,"Q2":1,"Q3":0}",NULL,NULL,NULL,NULL,NULL,NULL,NULL
"[{"page_index":0,"viewing_time":1102}]",1102,instructions,58,1266349,0.0-59.0,NULL,NULL,NULL,NULL,NULL,NULL,NULL,NULL
NULL,15424,survey-likert,59,1281775,0.0-60.0,"{"Q0":5,"Q1":7,"Q2":0}",NULL,NULL,NULL,NULL,NULL,NULL,NULL
NULL,18245,survey-likert,60,1300023,0.0-61.0,"{"Q0":5,"Q1":8,"Q2":6}",NULL,NULL,NULL,NULL,NULL,NULL,NULL
"[{"page_index":0,"viewing_time":2014}]",2015,instructions,61,1302038,0.0-62.0,NULL,NULL,NULL,NULL,NULL,NULL,NULL,NULL
NULL,8231,survey-likert,62,1310271,0.0-63.0,"{"Q0":8}",NULL,NULL,NULL,NULL,NULL,NULL,NULL
"[{"page_index":0,"viewing_time":3174},{"page_index":1,"viewing_time":1129}]",4303,instructions,63,1314574,0.0-64.0,NULL,NULL,NULL,NULL,NULL,NULL,NULL,NULL
NULL,16269,image-keyboard-response,64,1330845,0.0-65.0,NULL,img/app11.png,68,NULL,NULL,NULL,NULL,NULL
NULL,4463,image-keyboard-response,65,1335308,0.0-66.0,NULL,img/app12.png,68,NULL,NULL,NULL,NULL,NULL
NULL,6000,image-keyboard-response,66,1341309,0.0-67.0,NULL,img/app13.png,68,NULL,NULL,NULL,NULL,NULL
NULL,8576,image-keyboard-response,67,1349885,0.0-68.0,NULL,img/app14.png,68,NULL,NULL,NULL,NULL,NULL
NULL,3815,image-keyboard-response,68,1353701,0.0-69.0,NULL,img/app15.png,68,NULL,NULL,NULL,NULL,NULL
"[{"page_index":0,"viewing_time":2712}]",2712,instructions,69,1356415,0.0-70.0,NULL,NULL,NULL,NULL,NULL,NULL,NULL,NULL
"[{"page_index":0,"viewing_time":1703},{"page_index":1,"viewing_time":1865},{"page_index":2,"viewing_time":1688},{"page_index":3,"viewing_time":1312}]",6568,instructions,70,1362983,0.0-71.0,NULL,NULL,NULL,NULL,NULL,NULL,NULL,NULL
NULL,16095,survey-text,71,1379079,0.0-72.0,"{"Q0":"d.jikia@jacobs-university.de"}",NULL,NULL,NULL,NULL,NULL,NULL,NULL
